FOLDER,DOMAIN,VARIABLE,LABEL
BP41732S,AE,AEACN,Action Taken with Study Treatment
BP41732S,AE,AEACN1,Action Taken with Study Treatment 1
BP41732S,AE,AEACNOT1,Other Action Taken 1
BP41732S,AE,AEACNOTH,Other Action Taken
BP41732S,AE,AEASOD,Accidental Overdose?
BP41732S,AE,AEBDSYCD,Body System or Organ Class Code
BP41732S,AE,AEBODSYS,Body System or Organ Class
BP41732S,AE,AECAT,Category for Adverse Event
BP41732S,AE,AECONCST,Treatment for AE-Corticosteroid
BP41732S,AE,AECONTRT,Concomitant or Additional Trtmnt Given
BP41732S,AE,AEDECOD,Dictionary-Derived Term
BP41732S,AE,AEDTHDTC,Death Date
BP41732S,AE,AEENDTC,End Date/Time of Adverse Event
BP41732S,AE,AEENDY,Study Day of End of Adverse Event
BP41732S,AE,AEENRTPT,End Relative to Reference Time Point
BP41732S,AE,AEENTPT,End Reference Time Point
BP41732S,AE,AEEXP,Expedited Adverse Event
BP41732S,AE,AEGRPID,Group ID
BP41732S,AE,AEHLGT,High Level Group Term
BP41732S,AE,AEHLGTCD,High Level Group Term Code
BP41732S,AE,AEHLT,High Level Term
BP41732S,AE,AEHLTCD,High Level Term Code
BP41732S,AE,AEITOXGR,Initial Toxicity Grade
BP41732S,AE,AELLT,Lowest Level Term
BP41732S,AE,AELLTCD,Lowest Level Term Code
BP41732S,AE,AEMEDERR,Medication Error?
BP41732S,AE,AEMODIFY,Modified Reported Term
BP41732S,AE,AEOCCRF,Event Occurrence Reference Time Point
BP41732S,AE,AEOUT,Outcome of Adverse Event
BP41732S,AE,AEPTCD,Preferred Term Code
BP41732S,AE,AEREFID,Reference ID
BP41732S,AE,AEREL,Causality
BP41732S,AE,AEREL1,Causality: Study Drug 1
BP41732S,AE,AERELNS1,Relationship to Non-Study Treatment 1
BP41732S,AE,AERELNS2,Relationship to Non-Study Treatment 2
BP41732S,AE,AERELNS3,Relationship to Non-Study Treatment 3
BP41732S,AE,AERELNS4,Relationship to Non-Study Treatment 4
BP41732S,AE,AERELNS5,Relationship to Non-Study Treatment 5
BP41732S,AE,AERELNS6,Relationship to Non-Study Treatment 6
BP41732S,AE,AERELNS7,Relationship to Non-Study Treatment 7
BP41732S,AE,AERELNST,Relationship to Non-Study Treatment
BP41732S,AE,AESCAT,Subcategory for Adverse Event
BP41732S,AE,AESCONG,Congenital Anomaly or Birth Defect
BP41732S,AE,AESDISAB,Persist or Signif Disability/Incapacity
BP41732S,AE,AESDTH,Results in Death
BP41732S,AE,AESEQ,Sequence Number
BP41732S,AE,AESER,Serious Event
BP41732S,AE,AESHOSP,Requires or Prolongs Hospitalization
BP41732S,AE,AESLIFE,Is Life Threatening
BP41732S,AE,AESMIE,Other Medically Important Serious Event
BP41732S,AE,AESOC,Primary System Organ Class
BP41732S,AE,AESOCCD,Primary System Organ Class Code
BP41732S,AE,AESPID,Sponsor-Defined Identifier
BP41732S,AE,AESTDTC,Start Date/Time of Adverse Event
BP41732S,AE,AESTDY,Study Day of Start of Adverse Event
BP41732S,AE,AESTRTPT,Start Relative to Reference Time Point
BP41732S,AE,AESTTPT,Start Reference Time Point
BP41732S,AE,AETERM,Reported Term for the Adverse Event
BP41732S,AE,AETOXGR,Standard Toxicity Grade
BP41732S,AE,AETRTEM,Treatment Emergent Flag
BP41732S,AE,DOMAIN,Domain Abbreviation
BP41732S,AE,EPOCH,Epoch
BP41732S,AE,STUDYID,Study Identifier
BP41732S,AE,USUBJID,Unique Subject Identifier
BP41732S,BE,BECAT,Category for Biospecimen Event
BP41732S,BE,BEDECOD,Dictionary-Derived Term
BP41732S,BE,BEDTC,Date/Time of Specimen Collection
BP41732S,BE,BEDY,Study Day of Visit/Collection/Exam
BP41732S,BE,BEENDTC,End Date/Time of Biospecimen Event
BP41732S,BE,BEENDY,Study Day of End of Biospecimen Event
BP41732S,BE,BEOCCUR,Occurrence
BP41732S,BE,BEPRESP,Pre-specified
BP41732S,BE,BEREFID,Reference ID
BP41732S,BE,BESCAT,Subcategory for Biospecimen Event
BP41732S,BE,BESEQ,Sequence Number
BP41732S,BE,BESPEC,Specimen Material Type
BP41732S,BE,BESPID,Sponsor-Defined Identifier
BP41732S,BE,BESTDTC,Start Date/Time of Biospecimen Event
BP41732S,BE,BESTDY,Study Day of Start of Biospecimen Event
BP41732S,BE,BETERM,Reported Term for the Biospecimen Event
BP41732S,BE,BETPT,Planned Time Point Name
BP41732S,BE,BETPTNUM,Planned Time Point Number
BP41732S,BE,DOMAIN,Domain Abbreviation
BP41732S,BE,EPOCH,Epoch
BP41732S,BE,STUDYID,Study Identifier
BP41732S,BE,USUBJID,Unique Subject Identifier
BP41732S,BE,VISIT,Visit Name
BP41732S,BE,VISITDY,Planned Study Day of Visit
BP41732S,BE,VISITNUM,Visit Number
BP41732S,BS,BSBLFL,Baseline Flag
BP41732S,BS,BSCAT,Category for Biospecimen Test
BP41732S,BS,BSDTC,Date/Time of Specimen Collection
BP41732S,BS,BSDY,Study Day of Specimen Collection
BP41732S,BS,BSELTM,Planned Elapsed Time from Time Point Ref
BP41732S,BS,BSENDTC,End Date/Time of Biospecimen Findings
BP41732S,BS,BSENDY,Study Day of End of Biospecimen Findings
BP41732S,BS,BSORRES,Result or Finding in Original Units
BP41732S,BS,BSORRESU,Original Units
BP41732S,BS,BSREFID,Reference ID
BP41732S,BS,BSRFTDTC,Date/Time of Reference Time Point
BP41732S,BS,BSSCAT,Subcategory for Biospecimen Test
BP41732S,BS,BSSEQ,Sequence Number
BP41732S,BS,BSSPEC,Specimen Type
BP41732S,BS,BSSPID,Sponsor-Defined Identifier
BP41732S,BS,BSSTRESC,Character Result/Finding in Std Format
BP41732S,BS,BSSTRESN,Numeric Result/Finding in Standard Units
BP41732S,BS,BSSTRESU,Standard Units
BP41732S,BS,BSTEST,Biospecimen Test Name
BP41732S,BS,BSTESTCD,Biospecimen Test Short Name
BP41732S,BS,BSTPT,Planned Time Point Name
BP41732S,BS,BSTPTNUM,Planned Time Point Number
BP41732S,BS,BSTPTREF,Time Point Reference
BP41732S,BS,DOMAIN,Domain Abbreviation
BP41732S,BS,EPOCH,Epoch
BP41732S,BS,STUDYID,Study Identifier
BP41732S,BS,USUBJID,Unique Subject Identifier
BP41732S,BS,VISIT,Visit Name
BP41732S,BS,VISITDY,Planned Study Day of Visit
BP41732S,BS,VISITNUM,Visit Number
BP41732S,CE,CEBDSYCD,Body System or Organ Class Code
BP41732S,CE,CEBODSYS,Body System or Organ Class
BP41732S,CE,CECAT,Category for Clinical Event
BP41732S,CE,CEDECOD,Dictionary-Derived Term
BP41732S,CE,CEDTC,Date/Time of Event Collection
BP41732S,CE,CEDY,Study Day of Event Collection
BP41732S,CE,CEENDTC,End Date/Time of Clinical Event
BP41732S,CE,CEENDY,Study Day of End of Observation
BP41732S,CE,CEGRPID,Group ID
BP41732S,CE,CEHLGT,High Level Group Term
BP41732S,CE,CEHLGTCD,High Level Group Term Code
BP41732S,CE,CEHLT,High Level Term
BP41732S,CE,CEHLTCD,High Level Term Code
BP41732S,CE,CEITOXGR,Initial Toxicity Grade
BP41732S,CE,CELLT,Lowest Level Term
BP41732S,CE,CELLTCD,Lowest Level Term Code
BP41732S,CE,CEMODIFY,Modified Reported Term
BP41732S,CE,CEPTCD,Preferred Term Code
BP41732S,CE,CESEQ,Sequence Number
BP41732S,CE,CESER,Serious Event
BP41732S,CE,CESOC,Primary System Organ Class
BP41732S,CE,CESOCCD,Primary System Organ Class Code
BP41732S,CE,CESPID,Sponsor-Defined Identifier
BP41732S,CE,CESTDTC,Start Date/Time of Clinical Event
BP41732S,CE,CESTDY,Study Day of Start of Observation
BP41732S,CE,CETERM,Reported Term for the Clinical Event
BP41732S,CE,CETOXGR,Toxicity Grade
BP41732S,CE,DOMAIN,Domain Abbreviation
BP41732S,CE,EPOCH,Epoch
BP41732S,CE,STUDYID,Study Identifier
BP41732S,CE,USUBJID,Unique Subject Identifier
BP41732S,CM,CMCAT,Category for Medication
BP41732S,CM,CMDECOD,Standardized Medication Name
BP41732S,CM,CMDECOD1,Standardized Medication Name 1
BP41732S,CM,CMDECOD2,Standardized Medication Name 2
BP41732S,CM,CMDECOD3,Standardized Medication Name 3
BP41732S,CM,CMDECOD4,Standardized Medication Name 4
BP41732S,CM,CMDECOD5,Standardized Medication Name 5
BP41732S,CM,CMDECOD6,Standardized Medication Name 6
BP41732S,CM,CMDECOD7,Standardized Medication Name 7
BP41732S,CM,CMDOSE,Dose per Administration
BP41732S,CM,CMDOSFRM,Dose Form
BP41732S,CM,CMDOSFRQ,Dosing Frequency per Interval
BP41732S,CM,CMDOSTOT,Total Daily Dose
BP41732S,CM,CMDOSU,Dose Units
BP41732S,CM,CMDRG,Synonym Medication Name
BP41732S,CM,CMDRG1,Synonym Medication Name 1
BP41732S,CM,CMDRG2,Synonym Medication Name 2
BP41732S,CM,CMDRG3,Synonym Medication Name 3
BP41732S,CM,CMDRG4,Synonym Medication Name 4
BP41732S,CM,CMDRG5,Synonym Medication Name 5
BP41732S,CM,CMDRG6,Synonym Medication Name 6
BP41732S,CM,CMDRG7,Synonym Medication Name 7
BP41732S,CM,CMDRGCD,Synonym Medication Name Code
BP41732S,CM,CMELTM,Planned Elapsed Time from Time Point Ref
BP41732S,CM,CMENDTC,End Date/Time of Medication
BP41732S,CM,CMENDY,Study Day of End of Medication
BP41732S,CM,CMENRTPT,End Relative to Reference Time Point
BP41732S,CM,CMENTPT,End Reference Time Point
BP41732S,CM,CMGRPID,Group ID
BP41732S,CM,CMINDC,Indication
BP41732S,CM,CMLAT,Laterality
BP41732S,CM,CMLOC,Location of Dose Administration
BP41732S,CM,CMMODIF1,Modified Reported Name 1
BP41732S,CM,CMMODIF2,Modified Reported Name 2
BP41732S,CM,CMMODIF3,Modified Reported Name 3
BP41732S,CM,CMMODIF4,Modified Reported Name 4
BP41732S,CM,CMMODIF5,Modified Reported Name 5
BP41732S,CM,CMMODIF6,Modified Reported Name 6
BP41732S,CM,CMMODIF7,Modified Reported Name 7
BP41732S,CM,CMMODIFY,Modified Reported Name
BP41732S,CM,CMOCCUR,CM Occurrence
BP41732S,CM,CMPNCD,Standardized Medication Name Code
BP41732S,CM,CMPRESP,CM Pre-Specified
BP41732S,CM,CMPROPH,Given for prophylaxis
BP41732S,CM,CMREFID,Reference ID
BP41732S,CM,CMROUTE,Route of Administration
BP41732S,CM,CMSEQ,Sequence Number
BP41732S,CM,CMSPID,Sponsor-Defined Identifier
BP41732S,CM,CMSTDTC,Start Date/Time of Medication
BP41732S,CM,CMSTDY,Study Day of Start of Medication
BP41732S,CM,CMSTRTPT,Start Relative to Reference Time Point
BP41732S,CM,CMSTTPT,Start Reference Time Point
BP41732S,CM,CMTPTREF,Time Point Reference
BP41732S,CM,CMTRT,"Reported Name of Drug, Med, or Therapy"
BP41732S,CM,DOMAIN,Domain Abbreviation
BP41732S,CM,EPOCH,Epoch
BP41732S,CM,STUDYID,Study Identifier
BP41732S,CM,USUBJID,Unique Subject Identifier
BP41732S,CM,VISIT,Visit Name
BP41732S,CM,VISITDY,Planned Study Day of Visit
BP41732S,CM,VISITNUM,Visit Number
BP41732S,CO,CODTC,Date/Time of Comment
BP41732S,CO,CODY,Study Day of Visit/Collection/Exam
BP41732S,CO,COEVAL,Evaluator
BP41732S,CO,COREF,Comment Reference
BP41732S,CO,COSEQ,Sequence Number
BP41732S,CO,COVAL,Comment
BP41732S,CO,DOMAIN,Domain Abbreviation
BP41732S,CO,IDVAR,Identifying Variable
BP41732S,CO,IDVARVAL,Identifying Variable Value
BP41732S,CO,RDOMAIN,Related Domain Abbreviation
BP41732S,CO,STUDYID,Study Identifier
BP41732S,CO,USUBJID,Unique Subject Identifier
BP41732S,DM,ACTARM,Description of Actual Arm
BP41732S,DM,ACTARMCD,Actual Arm Code
BP41732S,DM,AGE,Age
BP41732S,DM,AGEU,Age Units
BP41732S,DM,ARM,Description of Planned Arm
BP41732S,DM,ARMCD,Planned Arm Code
BP41732S,DM,BRTHDTC,Date/Time of Birth
BP41732S,DM,COUNTRY,Country
BP41732S,DM,DMDTC,Date/Time of Collection
BP41732S,DM,DMDY,Study Day of Collection
BP41732S,DM,DOMAIN,Domain Abbreviation
BP41732S,DM,DTHDTC,Date/Time of Death
BP41732S,DM,DTHFL,Subject Death Flag
BP41732S,DM,ETHNIC,Ethnicity
BP41732S,DM,INVID,Investigator Identifier
BP41732S,DM,INVNAM,Investigator Name
BP41732S,DM,RACE,Race
BP41732S,DM,RACE1,Race 1
BP41732S,DM,RACE2,Race 2
BP41732S,DM,RACE3,Race 3
BP41732S,DM,RACE4,Race 4
BP41732S,DM,RACE5,Race 5
BP41732S,DM,RACESP1,Race Origin - Asian
BP41732S,DM,RACESP2,Race Origin - Native Hawaiian
BP41732S,DM,RANDID,Randomization ID
BP41732S,DM,RFENDTC,Subject Reference End Date/Time
BP41732S,DM,RFICDTC,Date/Time of Informed Consent
BP41732S,DM,RFPENDTC,Date/Time of End of Participation
BP41732S,DM,RFSTDTC,Subject Reference Start Date/Time
BP41732S,DM,RFXENDTC,Date/Time of Last Study Treatment
BP41732S,DM,RFXSTDTC,Date/Time of First Study Treatment
BP41732S,DM,SEX,Sex
BP41732S,DM,SITEID,Study Site Identifier
BP41732S,DM,STUDYID,Study Identifier
BP41732S,DM,SUBJID,Subject Identifier for the Study
BP41732S,DM,USUBJID,Unique Subject Identifier
BP41732S,DS,DOMAIN,Domain Abbreviation
BP41732S,DS,DSCAT,Category for Disposition Event
BP41732S,DS,DSDECOD,Standardized Disposition Term
BP41732S,DS,DSDTC,Date/Time of Collection
BP41732S,DS,DSDY,Study Day of Visit/Collection/Exam
BP41732S,DS,DSSCAT,Subcategory for Disposition Event
BP41732S,DS,DSSEQ,Sequence Number
BP41732S,DS,DSSPID,Sponsor-Defined Identifier
BP41732S,DS,DSSTDTC,Start Date/Time of Disposition Event
BP41732S,DS,DSSTDY,Study Day of Start of Disposition Event
BP41732S,DS,DSTERM,Reported Term for the Disposition Event
BP41732S,DS,EPOCH,Epoch
BP41732S,DS,STUDYID,Study Identifier
BP41732S,DS,USUBJID,Unique Subject Identifier
BP41732S,DV,DOMAIN,Domain Abbreviation
BP41732S,DV,DVCAT,Category for Protocol Deviation
BP41732S,DV,DVDECOD,Protocol Deviation Coded Term
BP41732S,DV,DVEPRELI,Epi/Pandemic Related Indicator
BP41732S,DV,DVREAS,Reason for Deviation
BP41732S,DV,DVREFID,Reference ID
BP41732S,DV,DVSEQ,Sequence Number
BP41732S,DV,DVSPID,Sponsor-Defined Identifier
BP41732S,DV,DVSTDTC,Start Date/Time of Deviation
BP41732S,DV,DVSTDY,Study Day of Start of Deviation
BP41732S,DV,DVTERM,Protocol Deviation Term
BP41732S,DV,EPOCH,Epoch
BP41732S,DV,STUDYID,Study Identifier
BP41732S,DV,USUBJID,Unique Subject Identifier
BP41732S,EC,DOMAIN,Domain Abbreviation
BP41732S,EC,ECDOSE,Dose
BP41732S,EC,ECDOSFRM,Dose Form
BP41732S,EC,ECDOSFRQ,Dosing Frequency per Interval
BP41732S,EC,ECDOSU,Dose Units
BP41732S,EC,ECENDTC,End Date/Time of Treatment
BP41732S,EC,ECENDY,Study Day of End of Treatment
BP41732S,EC,ECLAT,Laterality
BP41732S,EC,ECLNKGRP,Link Group ID
BP41732S,EC,ECLNKID,Link ID
BP41732S,EC,ECLOC,Location of Dose Administration
BP41732S,EC,ECMOOD,Mood
BP41732S,EC,ECOCCUR,Occurrence
BP41732S,EC,ECPRESP,Pre-Specified
BP41732S,EC,ECPSTRG,Pharmaceutical Strength
BP41732S,EC,ECPSTRGU,Pharmaceutical Strength Units
BP41732S,EC,ECREASOC,Reason for Study Drug Not Administered
BP41732S,EC,ECROUTE,Route of Administration
BP41732S,EC,ECSEQ,Sequence Number
BP41732S,EC,ECSPID,Sponsor-Defined Identifier
BP41732S,EC,ECSTDTC,Start Date/Time of Treatment
BP41732S,EC,ECSTDY,Study Day of Start of Treatment
BP41732S,EC,ECTRT,Name of Treatment
BP41732S,EC,EPOCH,Epoch
BP41732S,EC,STUDYID,Study Identifier
BP41732S,EC,USUBJID,Unique Subject Identifier
BP41732S,EC,VISIT,Visit Name
BP41732S,EC,VISITDY,Planned Study Day of Visit
BP41732S,EC,VISITNUM,Visit Number
BP41732S,EG,DOMAIN,Domain Abbreviation
BP41732S,EG,EGBLFL,Baseline Flag
BP41732S,EG,EGCLSIG,Clinically Significant
BP41732S,EG,EGDTC,Date/Time of ECG
BP41732S,EG,EGDY,Study Day of ECG
BP41732S,EG,EGELTM,Planned Elapsed Time from Time Point Ref
BP41732S,EG,EGEVAL,Evaluator
BP41732S,EG,EGGRPID,Group ID
BP41732S,EG,EGMETHOD,Method of ECG Test
BP41732S,EG,EGORRES,Result or Finding in Original Units
BP41732S,EG,EGORRESU,Original Units
BP41732S,EG,EGPOS,ECG Position of Subject
BP41732S,EG,EGREFID,ECG Reference ID
BP41732S,EG,EGRESTYN,ECG Resting Status of Subject
BP41732S,EG,EGRFTDTC,Date/Time of Reference Time Point
BP41732S,EG,EGSEQ,Sequence Number
BP41732S,EG,EGSPID,Sponsor-Defined Identifier
BP41732S,EG,EGSTAT,Completion Status
BP41732S,EG,EGSTRESC,Character Result/Finding in Std Format
BP41732S,EG,EGSTRESN,Numeric Result/Finding in Standard Units
BP41732S,EG,EGSTRESU,Standard Units
BP41732S,EG,EGTEST,ECG Test or Examination Name
BP41732S,EG,EGTESTCD,ECG Test or Examination Short Name
BP41732S,EG,EGTPT,Planned Time Point Name
BP41732S,EG,EGTPTNUM,Planned Time Point Number
BP41732S,EG,EGTPTREF,Time Point Reference
BP41732S,EG,EPOCH,Epoch
BP41732S,EG,STUDYID,Study Identifier
BP41732S,EG,USUBJID,Unique Subject Identifier
BP41732S,EG,VISIT,Visit Name
BP41732S,EG,VISITDY,Planned Study Day of Visit
BP41732S,EG,VISITNUM,Visit Number
BP41732S,EX,DOMAIN,Domain Abbreviation
BP41732S,EX,EPOCH,Epoch
BP41732S,EX,EXADJ,Reason for Dose Adjustment
BP41732S,EX,EXDOSE,Dose
BP41732S,EX,EXDOSFRM,Dose Form
BP41732S,EX,EXDOSFRQ,Dosing Frequency per Interval
BP41732S,EX,EXDOSU,Dose Units
BP41732S,EX,EXENDTC,End Date/Time of Treatment
BP41732S,EX,EXENDY,Study Day of End of Treatment
BP41732S,EX,EXLAT,Laterality
BP41732S,EX,EXLNKGRP,Link Group ID
BP41732S,EX,EXLNKID,Link ID
BP41732S,EX,EXLOC,Location of Dose Administration
BP41732S,EX,EXROUTE,Route of Administration
BP41732S,EX,EXSEQ,Sequence Number
BP41732S,EX,EXSPID,Sponsor-Defined Identifier
BP41732S,EX,EXSTDTC,Start Date/Time of Treatment
BP41732S,EX,EXSTDY,Study Day of Start of Treatment
BP41732S,EX,EXTRT,Name of Treatment
BP41732S,EX,STUDYID,Study Identifier
BP41732S,EX,USUBJID,Unique Subject Identifier
BP41732S,EX,VISIT,Visit Name
BP41732S,EX,VISITDY,Planned Study Day of Visit
BP41732S,EX,VISITNUM,Visit Number
BP41732S,FA,DOMAIN,Domain Abbreviation
BP41732S,FA,EPOCH,Epoch
BP41732S,FA,FABLFL,Baseline Flag
BP41732S,FA,FACAT,Category for Findings About
BP41732S,FA,FADTC,Date/Time of Collection
BP41732S,FA,FADY,Study Day of Collection
BP41732S,FA,FAECADJ,Reason for Dose Modification
BP41732S,FA,FAENDTC,End Date/Time of Observation
BP41732S,FA,FAENDY,Study Day of End of Observation
BP41732S,FA,FAGRPID,Group ID
BP41732S,FA,FAOBJ,Object of the Observation
BP41732S,FA,FAORRES,Result or Finding in Original Units
BP41732S,FA,FAORRESU,Original Units
BP41732S,FA,FAREFID,Reference ID
BP41732S,FA,FASEQ,Sequence Number
BP41732S,FA,FASPID,Sponsor-Defined Identifier
BP41732S,FA,FASTDTC,Start Date/Time of Observation
BP41732S,FA,FASTDY,Study Day of Start of Observation
BP41732S,FA,FASTRESC,Character Result/Finding in Std Format
BP41732S,FA,FASTRESN,Numeric Result/Finding in Standard Units
BP41732S,FA,FASTRESU,Standard Units
BP41732S,FA,FATEST,Findings About Test Name
BP41732S,FA,FATESTCD,Findings About Test Short Name
BP41732S,FA,STUDYID,Study Identifier
BP41732S,FA,USUBJID,Unique Subject Identifier
BP41732S,FA,VISIT,Visit Name
BP41732S,FA,VISITDY,Planned Study Day of Visit
BP41732S,FA,VISITNUM,Visit Number
BP41732S,HO,DOMAIN,Domain Abbreviation
BP41732S,HO,EPOCH,Epoch
BP41732S,HO,HOCAT,Category for Healthcare Encounter
BP41732S,HO,HODECOD,Dictionary-Derived Term
BP41732S,HO,HOENDTC,End Date/Time of Healthcare Encounter
BP41732S,HO,HOENDY,Study Day of End of Healthcare Encounter
BP41732S,HO,HOENRTPT,End Relative to Reference Time Point
BP41732S,HO,HOGRPID,Group ID
BP41732S,HO,HOOCCUR,Healthcare Encounter Occurrence
BP41732S,HO,HOPRESP,Pre-Specified Healthcare Encounter
BP41732S,HO,HOSEQ,Sequence Number
BP41732S,HO,HOSPID,Sponsor-Defined Identifier
BP41732S,HO,HOSTDTC,Start Date/Time of Healthcare Encounter
BP41732S,HO,HOSTDY,Study Day of Start of Observation
BP41732S,HO,HOTERM,Reported Term for Healthcare Encounter
BP41732S,HO,STUDYID,Study Identifier
BP41732S,HO,USUBJID,Unique Subject Identifier
BP41732S,LB,DOMAIN,Domain Abbreviation
BP41732S,LB,EPOCH,Epoch
BP41732S,LB,LBBLFL,Baseline Flag
BP41732S,LB,LBCAT,Category for Lab Test
BP41732S,LB,LBCLSIG,Clinically Significant
BP41732S,LB,LBCVNRHI,Reference Range Upper Limit-US CV Units
BP41732S,LB,LBCVNRLO,Reference Range Lower Limit-US CV Units
BP41732S,LB,LBCVRESC,Character Result/Finding in US CV Format
BP41732S,LB,LBCVRESU,US Conventional Units
BP41732S,LB,LBDTC,Date/Time of Specimen Collection
BP41732S,LB,LBDY,Study Day of Specimen Collection
BP41732S,LB,LBELTM,Planned Elapsed Time from Time Point Ref
BP41732S,LB,LBFAST,Fasting Status
BP41732S,LB,LBLOINC,LOINC Code
BP41732S,LB,LBMETHOD,Method of Test or Examination
BP41732S,LB,LBNAM,Vendor Name
BP41732S,LB,LBNRIND,Reference Range Indicator
BP41732S,LB,LBORNRHI,Reference Range Upper Limit in Orig Unit
BP41732S,LB,LBORNRLO,Reference Range Lower Limit in Orig Unit
BP41732S,LB,LBORRES,Result or Finding in Original Units
BP41732S,LB,LBORRESU,Original Units
BP41732S,LB,LBREASND,Reason Test Not Done
BP41732S,LB,LBREFID,Specimen ID
BP41732S,LB,LBRFTDTC,Date/Time of Reference Time Point
BP41732S,LB,LBSEQ,Sequence Number
BP41732S,LB,LBSMPLID,Alternate Sample Identifier
BP41732S,LB,LBSPCCND,Specimen Condition
BP41732S,LB,LBSPEC,Specimen Type
BP41732S,LB,LBSPID,Sponsor-Defined Identifier
BP41732S,LB,LBSTAT,Completion Status
BP41732S,LB,LBSTNRHI,Reference Range Upper Limit-Std Units
BP41732S,LB,LBSTNRLO,Reference Range Lower Limit-Std Units
BP41732S,LB,LBSTRESC,Character Result/Finding in Std Format
BP41732S,LB,LBSTRESN,Numeric Result/Finding in Standard Units
BP41732S,LB,LBSTRESU,Standard Units
BP41732S,LB,LBTEST,Lab Test or Examination Name
BP41732S,LB,LBTESTCD,Lab Test or Examination Short Name
BP41732S,LB,LBTPT,Planned Time Point Name
BP41732S,LB,LBTPTNUM,Planned Time Point Number
BP41732S,LB,LBTPTREF,Time Point Reference
BP41732S,LB,STUDYID,Study Identifier
BP41732S,LB,USUBJID,Unique Subject Identifier
BP41732S,LB,VISIT,Visit Name
BP41732S,LB,VISITDY,Planned Study Day of Visit
BP41732S,LB,VISITNUM,Visit Number
BP41732S,MH,DOMAIN,Domain Abbreviation
BP41732S,MH,EPOCH,Epoch
BP41732S,MH,MHBDSYCD,Body System or Organ Class Code
BP41732S,MH,MHBODSYS,Body System or Organ Class
BP41732S,MH,MHCAT,Category for Medical History
BP41732S,MH,MHDECOD,Dictionary-Derived Term
BP41732S,MH,MHDTC,Date/Time of History Collection
BP41732S,MH,MHDY,Study Day of History Collection
BP41732S,MH,MHENDTC,End Date/Time of Medical History Event
BP41732S,MH,MHENDY,Study Day of End of Observation
BP41732S,MH,MHENRTPT,End Relative to Reference Time Point
BP41732S,MH,MHENTPT,End Reference Time Point
BP41732S,MH,MHGRPID,Group ID
BP41732S,MH,MHHLGT,High Level Group Term
BP41732S,MH,MHHLGTCD,High Level Group Term Code
BP41732S,MH,MHHLT,High Level Term
BP41732S,MH,MHHLTCD,High Level Term Code
BP41732S,MH,MHLLT,Lowest Level Term
BP41732S,MH,MHLLTCD,Lowest Level Term Code
BP41732S,MH,MHMODIFY,Modified Reported Term
BP41732S,MH,MHOCCUR,Medical History Occurrence
BP41732S,MH,MHPRESP,Medical History Event Pre-Specified
BP41732S,MH,MHPTCD,Preferred Term Code
BP41732S,MH,MHSEQ,Sequence Number
BP41732S,MH,MHSOC,Primary System Organ Class
BP41732S,MH,MHSOCCD,Primary System Organ Class Code
BP41732S,MH,MHSPID,Sponsor-Defined Identifier
BP41732S,MH,MHSTDTC,Start Date/Time of Medical History Event
BP41732S,MH,MHSTDY,Study Day of Start of Observation
BP41732S,MH,MHSTRTPT,Start Relative to Reference Time Point
BP41732S,MH,MHSTTPT,Start Reference Time Point
BP41732S,MH,MHTERM,Reported Term for the Medical History
BP41732S,MH,STUDYID,Study Identifier
BP41732S,MH,USUBJID,Unique Subject Identifier
BP41732S,MH,VISIT,Visit Name
BP41732S,MH,VISITDY,Planned Study Day of Visit
BP41732S,MH,VISITNUM,Visit Number
BP41732S,ML,DOMAIN,Domain Abbreviation
BP41732S,ML,EPOCH,Epoch
BP41732S,ML,MLCAT,Category for Meal
BP41732S,ML,MLCMPYN,Did Subject complete the meal?
BP41732S,ML,MLDTC,Date/Time of Collection
BP41732S,ML,MLDY,Study Day of Visit/Collection/Exam
BP41732S,ML,MLENDTC,End Date/Time of Meal
BP41732S,ML,MLENDY,Study Day of End of Meal
BP41732S,ML,MLRFTDTC,Date/Time of Reference Time Point
BP41732S,ML,MLSEQ,Sequence Number
BP41732S,ML,MLSPID,Sponsor-Defined Identifier
BP41732S,ML,MLSTDTC,Start Date/Time of Meal
BP41732S,ML,MLSTDY,Study Day of Start of Meal
BP41732S,ML,MLTPT,Planned Time Point Name
BP41732S,ML,MLTPTNUM,Planned Time Point Number
BP41732S,ML,MLTPTREF,Time Point Reference
BP41732S,ML,MLTRT,Reported Name of Meal
BP41732S,ML,STUDYID,Study Identifier
BP41732S,ML,USUBJID,Unique Subject Identifier
BP41732S,ML,VISIT,Visit Name
BP41732S,ML,VISITDY,Planned Study Day of Visit
BP41732S,ML,VISITNUM,Visit Number
BP41732S,PC,DOMAIN,Domain Abbreviation
BP41732S,PC,EPOCH,Epoch
BP41732S,PC,PCANLDTC,Date/Time of Specimen or Sample Analysis
BP41732S,PC,PCCAT,Test Category
BP41732S,PC,PCDTC,Date/Time of Specimen Collection
BP41732S,PC,PCDTCA,Actual Date/Time of Specimen Collection
BP41732S,PC,PCDY,Actual Study Day of Specimen Collection
BP41732S,PC,PCDYA,Actual Study Day of Specimen Collection
BP41732S,PC,PCELTM,Planned Elapsed Time from Time Point Ref
BP41732S,PC,PCENDTC,End Date/Time of Specimen Collection
BP41732S,PC,PCENDTCA,Actual End Date/Time of Specimen Collection Actual
BP41732S,PC,PCENDY,Study Day of End of Observation
BP41732S,PC,PCENDYA,Actual Study Day of End of Observation
BP41732S,PC,PCLLOQ,Lower Limit of Quantitation
BP41732S,PC,PCMETHOD,Method of Test or Examination
BP41732S,PC,PCNAM,Vendor Name
BP41732S,PC,PCORRES,Result or Finding in Original Units
BP41732S,PC,PCORRESU,Original Units
BP41732S,PC,PCREASND,Reason Test Not Done
BP41732S,PC,PCREFID,Reference ID
BP41732S,PC,PCRFTDTC,Date/Time of Reference Point
BP41732S,PC,PCSEQ,Sequence Number
BP41732S,PC,PCSMPLID,Alternate Sample Identifier
BP41732S,PC,PCSPCCND,Specimen Condition
BP41732S,PC,PCSPEC,Specimen Material Type
BP41732S,PC,PCSPID,Sponsor-Defined Identifier
BP41732S,PC,PCSTAT,Completion Status
BP41732S,PC,PCSTRESC,Character Result/Finding in Std Format
BP41732S,PC,PCSTRESN,Numeric Result/Finding in Standard Units
BP41732S,PC,PCSTRESU,Standard Units
BP41732S,PC,PCTEST,Pharmacokinetic Test Name
BP41732S,PC,PCTESTCD,Pharmacokinetic Test Short Name
BP41732S,PC,PCTPT,Planned Time Point Name
BP41732S,PC,PCTPTNUM,Planned Time Point Number
BP41732S,PC,PCTPTREF,Time Point Reference
BP41732S,PC,STUDYID,Study Identifier
BP41732S,PC,USUBJID,Unique Subject Identifier
BP41732S,PC,VISIT,Visit Name
BP41732S,PC,VISITDY,Planned Study Day of Visit
BP41732S,PC,VISITNUM,Visit Number
BP41732S,PP,DOMAIN,Domain Abbreviation
BP41732S,PP,PPCAT,Parameter Category
BP41732S,PP,PPENINT,Planned End of Assessment Interval
BP41732S,PP,PPFAST,Fasting Status
BP41732S,PP,PPGRPID,Group ID
BP41732S,PP,PPORRES,Result or Finding in Original Units
BP41732S,PP,PPORRESU,Original Units
BP41732S,PP,PPREASND,Reason Parameter Not Calculated
BP41732S,PP,PPRFTDTC,Date/Time of Reference Point
BP41732S,PP,PPSEQ,Sequence Number
BP41732S,PP,PPSPEC,Specimen Material Type
BP41732S,PP,PPSPID,Sponsor-Defined Identifier
BP41732S,PP,PPSTAT,Completion Status
BP41732S,PP,PPSTINT,Planned Start of Assessment Interval
BP41732S,PP,PPSTRESC,Character Result/Finding in Std Format
BP41732S,PP,PPSTRESN,Numeric Result/Finding in Standard Units
BP41732S,PP,PPSTRESU,Standard Units
BP41732S,PP,PPTEST,Parameter Name
BP41732S,PP,PPTESTCD,Parameter Short Name
BP41732S,PP,STUDYID,Study Identifier
BP41732S,PP,USUBJID,Unique Subject Identifier
BP41732S,PR,DOMAIN,Domain Abbreviation
BP41732S,PR,EPOCH,Epoch
BP41732S,PR,PRCAT,Category
BP41732S,PR,PRENDTC,End Date/Time of Procedure
BP41732S,PR,PRENDY,Study Day of End of Procedure
BP41732S,PR,PRGRPID,Group ID
BP41732S,PR,PROCCUR,Occurrence
BP41732S,PR,PRPRESP,Pre-specified
BP41732S,PR,PRSEQ,Sequence Number
BP41732S,PR,PRSPID,Sponsor-Defined Identifier
BP41732S,PR,PRSTDTC,Start Date/Time of Procedure
BP41732S,PR,PRSTDY,Study Day of Start of Procedure
BP41732S,PR,PRTRT,Reported Name of Procedure
BP41732S,PR,STUDYID,Study Identifier
BP41732S,PR,USUBJID,Unique Subject Identifier
BP41732S,QS,DOMAIN,Domain Abbreviation
BP41732S,QS,EPOCH,Epoch
BP41732S,QS,QSBLFL,Baseline Flag
BP41732S,QS,QSCAT,Category of Question
BP41732S,QS,QSDTC,Date/Time of Finding
BP41732S,QS,QSDY,Study Day of Finding
BP41732S,QS,QSEVINTX,Evaluation Interval Text
BP41732S,QS,QSEVLINT,Evaluation Interval
BP41732S,QS,QSORRES,Finding in Original Units
BP41732S,QS,QSORRESU,Original Units
BP41732S,QS,QSREASND,Reason Not Performed
BP41732S,QS,QSSCAT,Subcategory for Question
BP41732S,QS,QSSEQ,Sequence Number
BP41732S,QS,QSSPID,Sponsor-Defined Identifier
BP41732S,QS,QSSTAT,Completion Status
BP41732S,QS,QSSTRESC,Character Result/Finding in Std Format
BP41732S,QS,QSSTRESN,Numeric Finding in Standard Units
BP41732S,QS,QSSTRESU,Standard Units
BP41732S,QS,QSTEST,Question Name
BP41732S,QS,QSTESTCD,Question Short Name
BP41732S,QS,QSTSTDTL,"Measurement, Test or Examination Detail"
BP41732S,QS,STUDYID,Study Identifier
BP41732S,QS,USUBJID,Unique Subject Identifier
BP41732S,QS,VISIT,Visit Name
BP41732S,QS,VISITDY,Planned Study Day of Visit
BP41732S,QS,VISITNUM,Visit Number
BP41732S,SC,DOMAIN,Domain Abbreviation
BP41732S,SC,EPOCH,Epoch
BP41732S,SC,SCCAT,Category for Subject Characteristic
BP41732S,SC,SCDTC,Date/Time of Collection
BP41732S,SC,SCDY,Study Day of Examination
BP41732S,SC,SCORRES,Result or Finding in Original Units
BP41732S,SC,SCSEQ,Sequence Number
BP41732S,SC,SCSPID,Sponsor-Defined Identifier
BP41732S,SC,SCSTAT,Completion Status
BP41732S,SC,SCSTRESC,Character Result/Finding in Std Format
BP41732S,SC,SCTEST,Subject Characteristic
BP41732S,SC,SCTESTCD,Subject Characteristic Short Name
BP41732S,SC,STUDYID,Study Identifier
BP41732S,SC,USUBJID,Unique Subject Identifier
BP41732S,SE,DOMAIN,Domain Abbreviation
BP41732S,SE,ELEMENT,Description of Element
BP41732S,SE,EPOCH,Epoch
BP41732S,SE,ETCD,Element Code
BP41732S,SE,SEENDTC,End Date/Time of Element
BP41732S,SE,SEENDY,Study Day of End of Observation
BP41732S,SE,SESEQ,Sequence Number
BP41732S,SE,SESTDTC,Start Date/Time of Element
BP41732S,SE,SESTDY,Study Day of Start of Observation
BP41732S,SE,SEUPDES,Description of Unplanned Element
BP41732S,SE,STUDYID,Study Identifier
BP41732S,SE,TAETORD,Planned Order of Element within Arm
BP41732S,SE,USUBJID,Unique Subject Identifier
BP41732S,SU,DOMAIN,Domain Abbreviation
BP41732S,SU,EPOCH,Epoch
BP41732S,SU,STUDYID,Study Identifier
BP41732S,SU,SUCAT,Category for Substance Use
BP41732S,SU,SUDTC,Date/Time of Collection
BP41732S,SU,SUDY,Study Day of Visit/Collection/Exam
BP41732S,SU,SUOCCUR,SU Occurrence
BP41732S,SU,SUPRESP,SU Pre-Specified
BP41732S,SU,SUSEQ,Sequence Number
BP41732S,SU,SUSPID,Sponsor-Defined Identifier
BP41732S,SU,SUTRT,Reported Name of Substance
BP41732S,SU,USUBJID,Unique Subject Identifier
BP41732S,SU,VISIT,Visit Name
BP41732S,SU,VISITDY,Planned Study Day of Visit
BP41732S,SU,VISITNUM,Visit Number
BP41732S,SV,DOMAIN,Domain Abbreviation
BP41732S,SV,EPOCH,Epoch
BP41732S,SV,STUDYID,Study Identifier
BP41732S,SV,SVENDTC,End Date/Time of Visit
BP41732S,SV,SVENDY,Study Day of End of Visit
BP41732S,SV,SVSTDTC,Start Date/Time of Visit
BP41732S,SV,SVSTDY,Study Day of Start of Visit
BP41732S,SV,USUBJID,Unique Subject Identifier
BP41732S,SV,VISIT,Visit Name
BP41732S,SV,VISITDY,Planned Study Day of Visit
BP41732S,SV,VISITNUM,Visit Number
BP41732S,TA,ARM,Description of Planned Arm
BP41732S,TA,ARMCD,Planned Arm Code
BP41732S,TA,DOMAIN,Domain Abbreviation
BP41732S,TA,ELEMENT,Description of Element
BP41732S,TA,EPOCH,Epoch
BP41732S,TA,ETCD,Element Code
BP41732S,TA,STUDYID,Study Identifier
BP41732S,TA,TABRANCH,Branch
BP41732S,TA,TAETORD,Planned Order of Element within Arm
BP41732S,TA,TATRANS,Transition Rule
BP41732S,TE,DOMAIN,Domain Abbreviation
BP41732S,TE,ELEMENT,Description of Element
BP41732S,TE,ETCD,Element Code
BP41732S,TE,STUDYID,Study Identifier
BP41732S,TE,TEDUR,Planned Duration of Element
BP41732S,TE,TEENRL,Rule for End of Element
BP41732S,TE,TESTRL,Rule for Start of Element
BP41732S,TI,DOMAIN,Domain Abbreviation
BP41732S,TI,IECAT,Inclusion/Exclusion Category
BP41732S,TI,IETEST,Inclusion/Exclusion Criterion
BP41732S,TI,IETESTCD,Incl/Excl Criterion Short Name
BP41732S,TI,STUDYID,Study Identifier
BP41732S,TI,TIVERS,Protocol Criteria Versions
BP41732S,TS,DOMAIN,Domain Abbreviation
BP41732S,TS,STUDYID,Study Identifier
BP41732S,TS,TSGRPID,Group ID
BP41732S,TS,TSPARM,Trial Summary Parameter
BP41732S,TS,TSPARMCD,Trial Summary Parameter Short Name
BP41732S,TS,TSSEQ,Sequence Number
BP41732S,TS,TSVAL,Parameter Value
BP41732S,TS,TSVALCD,Parameter Value Code
BP41732S,TS,TSVALNF,Parameter Null Flavor
BP41732S,TS,TSVCDREF,Name of the Reference Terminology
BP41732S,TS,TSVCDVER,Version of the Reference Terminology
BP41732S,TV,ARM,Description of Planned Arm
BP41732S,TV,ARMCD,Planned Arm Code
BP41732S,TV,DOMAIN,Domain Abbreviation
BP41732S,TV,STUDYID,Study Identifier
BP41732S,TV,TVENRL,Visit End Rule
BP41732S,TV,TVSTRL,Visit Start Rule
BP41732S,TV,VISIT,Visit Name
BP41732S,TV,VISITDY,Planned Study Day of Visit
BP41732S,TV,VISITNUM,Visit Number
BP41732S,VS,DOMAIN,Domain Abbreviation
BP41732S,VS,EPOCH,Epoch
BP41732S,VS,STUDYID,Study Identifier
BP41732S,VS,USUBJID,Unique Subject Identifier
BP41732S,VS,VISIT,Visit Name
BP41732S,VS,VISITDY,Planned Study Day of Visit
BP41732S,VS,VISITNUM,Visit Number
BP41732S,VS,VSBLFL,Baseline Flag
BP41732S,VS,VSCAT,Category for Vital Signs
BP41732S,VS,VSDTC,Date/Time of Measurements
BP41732S,VS,VSDY,Study Day of Vital Signs
BP41732S,VS,VSELTM,Planned Elapsed Time from Time Point Ref
BP41732S,VS,VSMETHOD,Method of Test or Examination
BP41732S,VS,VSORRES,Result or Finding in Original Units
BP41732S,VS,VSORRESU,Original Units
BP41732S,VS,VSPOS,Vital Signs Position of Subject
BP41732S,VS,VSRFTDTC,Date/Time of Reference Time Point
BP41732S,VS,VSSEQ,Sequence Number
BP41732S,VS,VSSPID,Sponsor-Defined Identifier
BP41732S,VS,VSSTAT,Completion Status
BP41732S,VS,VSSTRESC,Character Result/Finding in Std Format
BP41732S,VS,VSSTRESN,Numeric Result/Finding in Standard Units
BP41732S,VS,VSSTRESU,Standard Units
BP41732S,VS,VSTEST,Vital Signs Test Name
BP41732S,VS,VSTESTCD,Vital Signs Test Short Name
BP41732S,VS,VSTPT,Planned Time Point Name
BP41732S,VS,VSTPTNUM,Planned Time Point Number
BP41732S,VS,VSTPTREF,Time Point Reference
BP41732S,YI,DOMAIN,Domain Abbreviation
BP41732S,YI,STUDYID,Study Identifier
BP41732S,YI,USUBJID,Unique Subject Identifier
BP41732S,YI,YICAT,Category
BP41732S,YI,YICNTRY,Center Country
BP41732S,YI,YICRTN,Clinical Research Task Number
BP41732S,YI,YICSTATE,Center State
BP41732S,YI,YICTCITY,Center City
BP41732S,YI,YICTCNAM,Center Name
BP41732S,YI,YICTCNUM,Center Number
BP41732S,YI,YICTINAM,Center Investigator Name
BP41732S,YI,YICTINUM,Center Investigator Number
BP41732S,YI,YICTZIP,Center Postal Zip Code
BP41732S,YI,YIIADDR1,Investigator Address Line 1
BP41732S,YI,YIIADDR2,Investigator Address Line 2
BP41732S,YI,YIIADDR3,Investigator Address Line 3
BP41732S,YI,YIICITY,Investigator City
BP41732S,YI,YIICNTRY,Investigator Country
BP41732S,YI,YIIEMAIL,Investigator Email ID
BP41732S,YI,YIIFAX,Investigator Fax Number
BP41732S,YI,YIIMNAM,Investigator Middle Name
BP41732S,YI,YIINUM,Investigator Contact Number
BP41732S,YI,YIINUMTP,Investigator Contact Type
BP41732S,YI,YIINVID,Investigator Identifier
BP41732S,YI,YIINVZIP,Investigator Postal Zip Code
BP41732S,YI,YIISTATE,Investigator State
BP41732S,YI,YISEQ,Sequence Number
BP41732S,YI,YISITEID,Site Identifier
BP41732S,YI,YITERM,Reported Term for Event
BP43628S,AE,AEACN,Action Taken with Study Treatment
BP43628S,AE,AEACN1,Action Taken with RO7223280
BP43628S,AE,AEACN2,Action Taken with Iohexol
BP43628S,AE,AEACNOT1,Other Action Taken 1
BP43628S,AE,AEACNOT2,Other Action Taken 2
BP43628S,AE,AEACNOTH,Other Action Taken
BP43628S,AE,AEBDSYCD,Body System or Organ Class Code
BP43628S,AE,AEBODSYS,Body System or Organ Class
BP43628S,AE,AECAT,Category for Adverse Event
BP43628S,AE,AECONTRT,Concomitant or Additional Trtmnt Given
BP43628S,AE,AEDECOD,Dictionary-Derived Term
BP43628S,AE,AEDLEYN,Dose Limiting Adverse Event
BP43628S,AE,AEDTHDTC,Death Date
BP43628S,AE,AEENDTC,End Date/Time of Adverse Event
BP43628S,AE,AEENDY,Study Day of End of Adverse Event
BP43628S,AE,AEENRTPT,End Relative to Reference Time Point
BP43628S,AE,AEENTPT,End Reference Time Point
BP43628S,AE,AEEXP,Expedited Adverse Event
BP43628S,AE,AEGRPID,Group ID
BP43628S,AE,AEHLGT,High Level Group Term
BP43628S,AE,AEHLGTCD,High Level Group Term Code
BP43628S,AE,AEHLT,High Level Term
BP43628S,AE,AEHLTCD,High Level Term Code
BP43628S,AE,AEITOXGR,Initial Toxicity Grade
BP43628S,AE,AELLT,Lowest Level Term
BP43628S,AE,AELLTCD,Lowest Level Term Code
BP43628S,AE,AEMODIFY,Modified Reported Term
BP43628S,AE,AEOCCRF,Event Occurrence Reference Time Point
BP43628S,AE,AEOUT,Outcome of Adverse Event
BP43628S,AE,AEPATT,Pattern of Adverse Event
BP43628S,AE,AEPTCD,Preferred Term Code
BP43628S,AE,AEREFID,Reference ID
BP43628S,AE,AEREL,Causality
BP43628S,AE,AEREL1,Causality: RO7223280
BP43628S,AE,AEREL2,Causality: Iohexol
BP43628S,AE,AERELNS1,Relationship to Non-Study Treatment 1
BP43628S,AE,AERELNS2,Relationship to Non-Study Treatment 2
BP43628S,AE,AERELNS3,Relationship to Non-Study Treatment 3
BP43628S,AE,AERELNS4,Relationship to Non-Study Treatment 4
BP43628S,AE,AERELNS5,Relationship to Non-Study Treatment 5
BP43628S,AE,AERELNS6,Relationship to Non-Study Treatment 6
BP43628S,AE,AERELNST,Relationship to Non-Study Treatment
BP43628S,AE,AESCAT,Subcategory for Adverse Event
BP43628S,AE,AESCONG,Congenital Anomaly or Birth Defect
BP43628S,AE,AESDISAB,Persist or Signif Disability/Incapacity
BP43628S,AE,AESDTH,Results in Death
BP43628S,AE,AESEQ,Sequence Number
BP43628S,AE,AESER,Serious Event
BP43628S,AE,AESHOSP,Requires or Prolongs Hospitalization
BP43628S,AE,AESLIFE,Is Life Threatening
BP43628S,AE,AESMIE,Other Medically Important Serious Event
BP43628S,AE,AESOC,Primary System Organ Class
BP43628S,AE,AESOCCD,Primary System Organ Class Code
BP43628S,AE,AESPID,Sponsor-Defined Identifier
BP43628S,AE,AESTDTC,Start Date/Time of Adverse Event
BP43628S,AE,AESTDY,Study Day of Start of Adverse Event
BP43628S,AE,AESTRTPT,Start Relative to Reference Time Point
BP43628S,AE,AESTTPT,Start Reference Time Point
BP43628S,AE,AETERM,Reported Term for the Adverse Event
BP43628S,AE,AETOXGR,Standard Toxicity Grade
BP43628S,AE,AETRTEM,Treatment Emergent Flag
BP43628S,AE,DOMAIN,Domain Abbreviation
BP43628S,AE,EPOCH,Epoch
BP43628S,AE,STUDYID,Study Identifier
BP43628S,AE,USUBJID,Unique Subject Identifier
BP43628S,BE,BECAT,Category for Biospecimen Event
BP43628S,BE,BEDECOD,Dictionary-Derived Term
BP43628S,BE,BEDTC,Date/Time of Specimen Collection
BP43628S,BE,BEDUR,Duration of Biospecimen Event
BP43628S,BE,BEDY,Study Day of Visit/Collection/Exam
BP43628S,BE,BEENDTC,End Date/Time of Biospecimen Event
BP43628S,BE,BEENDY,Study Day of End of Biospecimen Event
BP43628S,BE,BEOCCUR,Occurrence
BP43628S,BE,BEPRESP,Pre-specified
BP43628S,BE,BEREFID,Reference ID
BP43628S,BE,BESCAT,Subcategory for Biospecimen Event
BP43628S,BE,BESEQ,Sequence Number
BP43628S,BE,BESPID,Sponsor-Defined Identifier
BP43628S,BE,BESPPURP,Specimen Intended Purpose
BP43628S,BE,BESTDTC,Start Date/Time of Biospecimen Event
BP43628S,BE,BESTDY,Study Day of Start of Biospecimen Event
BP43628S,BE,BETERM,Reported Term for the Biospecimen Event
BP43628S,BE,BETPT,Planned Time Point Name
BP43628S,BE,BETPTNUM,Planned Time Point Number
BP43628S,BE,DOMAIN,Domain Abbreviation
BP43628S,BE,EPOCH,Epoch
BP43628S,BE,STUDYID,Study Identifier
BP43628S,BE,USUBJID,Unique Subject Identifier
BP43628S,BE,VISIT,Visit Name
BP43628S,BE,VISITDY,Planned Study Day of Visit
BP43628S,BE,VISITNUM,Visit Number
BP43628S,BS,BSBLFL,Baseline Flag
BP43628S,BS,BSCAT,Category for Biospecimen Test
BP43628S,BS,BSDTC,Date/Time of Specimen Collection
BP43628S,BS,BSDY,Study Day of Specimen Collection
BP43628S,BS,BSELTM,Planned Elapsed Time from Time Point Ref
BP43628S,BS,BSORRES,Result or Finding in Original Units
BP43628S,BS,BSORRESU,Original Units
BP43628S,BS,BSREFID,Reference ID
BP43628S,BS,BSRFTDTC,Date/Time of Reference Time Point
BP43628S,BS,BSSCAT,Subcategory for Biospecimen Test
BP43628S,BS,BSSEQ,Sequence Number
BP43628S,BS,BSSPEC,Specimen Type
BP43628S,BS,BSSPID,Sponsor-Defined Identifier
BP43628S,BS,BSSTRESC,Character Result/Finding in Std Format
BP43628S,BS,BSSTRESN,Numeric Result/Finding in Standard Units
BP43628S,BS,BSSTRESU,Standard Units
BP43628S,BS,BSTEST,Biospecimen Test Name
BP43628S,BS,BSTESTCD,Biospecimen Test Short Name
BP43628S,BS,BSTPT,Planned Time Point Name
BP43628S,BS,BSTPTNUM,Planned Time Point Number
BP43628S,BS,BSTPTREF,Time Point Reference
BP43628S,BS,DOMAIN,Domain Abbreviation
BP43628S,BS,EPOCH,Epoch
BP43628S,BS,STUDYID,Study Identifier
BP43628S,BS,USUBJID,Unique Subject Identifier
BP43628S,BS,VISIT,Visit Name
BP43628S,BS,VISITDY,Planned Study Day of Visit
BP43628S,BS,VISITNUM,Visit Number
BP43628S,CE,CEBDSYCD,Body System or Organ Class Code
BP43628S,CE,CEBODSYS,Body System or Organ Class
BP43628S,CE,CECAT,Category for Clinical Event
BP43628S,CE,CECONTRT,Concomitant or Additional Trtmnt Given
BP43628S,CE,CEDECOD,Dictionary-Derived Term
BP43628S,CE,CEDIR,Directionality
BP43628S,CE,CEDTC,Date/Time of Event Collection
BP43628S,CE,CEDY,Study Day of Event Collection
BP43628S,CE,CEENDTC,End Date/Time of Clinical Event
BP43628S,CE,CEENDY,Study Day of End of Observation
BP43628S,CE,CEENRF,End Relative to Reference Period
BP43628S,CE,CEENRTPT,End Relative to Reference Time Point
BP43628S,CE,CEENTPT,End Reference Time Point
BP43628S,CE,CEGRPID,Group ID
BP43628S,CE,CEHLGT,High Level Group Term
BP43628S,CE,CEHLGTCD,High Level Group Term Code
BP43628S,CE,CEHLT,High Level Term
BP43628S,CE,CEHLTCD,High Level Term Code
BP43628S,CE,CEITOXGR,Initial Toxicity Grade
BP43628S,CE,CELAT,Laterality
BP43628S,CE,CELLT,Lowest Level Term
BP43628S,CE,CELLTCD,Lowest Level Term Code
BP43628S,CE,CELOC,Location of Event
BP43628S,CE,CELOCOTH,"Other Location, Specify"
BP43628S,CE,CEMODIFY,Modified Reported Term
BP43628S,CE,CEOCCRF,Event Occurrence Reference Time Point
BP43628S,CE,CEOCCUR,Clinical Event Occurrence
BP43628S,CE,CEOUT,Outcome of Event
BP43628S,CE,CEPRESP,Clinical Event Pre-Specified
BP43628S,CE,CEPTCD,Preferred Term Code
BP43628S,CE,CEREASND,Reason Clinical Event Not Collected
BP43628S,CE,CEREFID,Reference ID
BP43628S,CE,CESCAT,Subcategory for Clinical Event
BP43628S,CE,CESEQ,Sequence Number
BP43628S,CE,CESER,Serious Event
BP43628S,CE,CESEV,Severity/Intensity
BP43628S,CE,CESEVIN,Initial Severity/Intensity
BP43628S,CE,CESOC,Primary System Organ Class
BP43628S,CE,CESOCCD,Primary System Organ Class Code
BP43628S,CE,CESPID,Sponsor-Defined Identifier
BP43628S,CE,CESTAT,Completion Status
BP43628S,CE,CESTDTC,Start Date/Time of Clinical Event
BP43628S,CE,CESTDY,Study Day of Start of Observation
BP43628S,CE,CESTRF,Start Relative to Reference Period
BP43628S,CE,CESTRTPT,Start Relative to Reference Time Point
BP43628S,CE,CESTTPT,Start Reference Time Point
BP43628S,CE,CETERM,Reported Term for the Clinical Event
BP43628S,CE,CETOXGR,Toxicity Grade
BP43628S,CE,CETRMDTL,Term Details
BP43628S,CE,DOMAIN,Domain Abbreviation
BP43628S,CE,EPOCH,Epoch
BP43628S,CE,STUDYID,Study Identifier
BP43628S,CE,USUBJID,Unique Subject Identifier
BP43628S,CE,VISIT,Visit Name
BP43628S,CE,VISITDY,Planned Study Day of Visit
BP43628S,CE,VISITNUM,Visit Number
BP43628S,CM,CMCAT,Category for Medication
BP43628S,CM,CMDECOD,Standardized Medication Name
BP43628S,CM,CMDECOD1,Standardized Medication Name 1
BP43628S,CM,CMDECOD2,Standardized Medication Name 2
BP43628S,CM,CMDECOD3,Standardized Medication Name 3
BP43628S,CM,CMDECOD4,Standardized Medication Name 4
BP43628S,CM,CMDECOD5,Standardized Medication Name 5
BP43628S,CM,CMDECOD6,Standardized Medication Name 6
BP43628S,CM,CMDECOD7,Standardized Medication Name 7
BP43628S,CM,CMDOSE,Dose per Administration
BP43628S,CM,CMDOSFRM,Dose Form
BP43628S,CM,CMDOSFRQ,Dosing Frequency per Interval
BP43628S,CM,CMDOSTXT,Dose Description
BP43628S,CM,CMDOSU,Dose Units
BP43628S,CM,CMDRG,Synonym Medication Name
BP43628S,CM,CMDRG1,Synonym Medication Name 1
BP43628S,CM,CMDRG2,Synonym Medication Name 2
BP43628S,CM,CMDRG3,Synonym Medication Name 3
BP43628S,CM,CMDRG4,Synonym Medication Name 4
BP43628S,CM,CMDRG5,Synonym Medication Name 5
BP43628S,CM,CMDRG6,Synonym Medication Name 6
BP43628S,CM,CMDRG7,Synonym Medication Name 7
BP43628S,CM,CMDRGCD,Synonym Medication Name Code
BP43628S,CM,CMENDTC,End Date/Time of Medication
BP43628S,CM,CMENDY,Study Day of End of Medication
BP43628S,CM,CMENRTPT,End Relative to Reference Time Point
BP43628S,CM,CMENTPT,End Reference Time Point
BP43628S,CM,CMGRPID,Group ID
BP43628S,CM,CMINDC,Indication
BP43628S,CM,CMMODIF1,Modified Reported Name 1
BP43628S,CM,CMMODIF2,Modified Reported Name 2
BP43628S,CM,CMMODIF3,Modified Reported Name 3
BP43628S,CM,CMMODIF4,Modified Reported Name 4
BP43628S,CM,CMMODIF5,Modified Reported Name 5
BP43628S,CM,CMMODIF6,Modified Reported Name 6
BP43628S,CM,CMMODIF7,Modified Reported Name 7
BP43628S,CM,CMMODIFY,Modified Reported Name
BP43628S,CM,CMPNCD,Standardized Medication Name Code
BP43628S,CM,CMPROPH,Given for prophylaxis
BP43628S,CM,CMREFID,Reference ID
BP43628S,CM,CMROUTE,Route of Administration
BP43628S,CM,CMSEQ,Sequence Number
BP43628S,CM,CMSPID,Sponsor-Defined Identifier
BP43628S,CM,CMSTDTC,Start Date/Time of Medication
BP43628S,CM,CMSTDY,Study Day of Start of Medication
BP43628S,CM,CMSTRTPT,Start Relative to Reference Time Point
BP43628S,CM,CMSTTPT,Start Reference Time Point
BP43628S,CM,CMTRT,"Reported Name of Drug, Med, or Therapy"
BP43628S,CM,DOMAIN,Domain Abbreviation
BP43628S,CM,EPOCH,Epoch
BP43628S,CM,STUDYID,Study Identifier
BP43628S,CM,USUBJID,Unique Subject Identifier
BP43628S,CM,VISIT,Visit Name
BP43628S,CM,VISITDY,Planned Study Day of Visit
BP43628S,CM,VISITNUM,Visit Number
BP43628S,CO,CODTC,Date/Time of Comment
BP43628S,CO,CODY,Study Day of Visit/Collection/Exam
BP43628S,CO,COEVAL,Evaluator
BP43628S,CO,COREF,Comment Reference
BP43628S,CO,COSEQ,Sequence Number
BP43628S,CO,COVAL,Comment
BP43628S,CO,DOMAIN,Domain Abbreviation
BP43628S,CO,IDVAR,Identifying Variable
BP43628S,CO,IDVARVAL,Identifying Variable Value
BP43628S,CO,RDOMAIN,Related Domain Abbreviation
BP43628S,CO,STUDYID,Study Identifier
BP43628S,CO,USUBJID,Unique Subject Identifier
BP43628S,DI,DIPARM,Device Identifier  Element Name
BP43628S,DI,DIPARMCD,Device Identifier Element Short Name
BP43628S,DI,DISEQ,Sequence Number
BP43628S,DI,DIVAL,Device Identifier Element Value
BP43628S,DI,DOMAIN,Domain Abbreviation
BP43628S,DI,SPDEVID,Sponsor Device Identifier
BP43628S,DI,STUDYID,Study Identifier
BP43628S,DI,USUBJID,Unique Subject Identifier
BP43628S,DM,ACTARM,Description of Actual Arm
BP43628S,DM,ACTARMCD,Actual Arm Code
BP43628S,DM,AGE,Age
BP43628S,DM,AGEU,Age Units
BP43628S,DM,ARM,Description of Planned Arm
BP43628S,DM,ARMCD,Planned Arm Code
BP43628S,DM,BRTHDTC,Date/Time of Birth
BP43628S,DM,COUNTRY,Country
BP43628S,DM,CRACE1,Race as Collected 1
BP43628S,DM,CRACE10,Race as Collected 10
BP43628S,DM,CRACE2,Race as Collected 2
BP43628S,DM,CRACE3,Race as Collected 3
BP43628S,DM,CRACE4,Race as Collected 4
BP43628S,DM,CRACE5,Race as Collected 5
BP43628S,DM,CRACE6,Race as Collected 6
BP43628S,DM,CRACE7,Race as Collected 7
BP43628S,DM,CRACE8,Race as Collected 8
BP43628S,DM,CRACE9,Race as Collected 9
BP43628S,DM,DMDTC,Date/Time of Collection
BP43628S,DM,DMDY,Study Day of Collection
BP43628S,DM,DOMAIN,Domain Abbreviation
BP43628S,DM,DTHDTC,Date/Time of Death
BP43628S,DM,DTHFL,Subject Death Flag
BP43628S,DM,ETHNIC,Ethnicity
BP43628S,DM,ETHNIC1,Ethnicity 1
BP43628S,DM,ETHNIC2,Ethnicity 2
BP43628S,DM,ETHNIC3,Ethnicity 3
BP43628S,DM,ETHNIC4,Ethnicity 4
BP43628S,DM,ETHNIC5,Ethnicity 5
BP43628S,DM,INVID,Investigator Identifier
BP43628S,DM,INVNAM,Investigator Name
BP43628S,DM,RACE,Race
BP43628S,DM,RACE1,Race 1
BP43628S,DM,RACE2,Race 2
BP43628S,DM,RACE3,Race 3
BP43628S,DM,RACE4,Race 4
BP43628S,DM,RACE5,Race 5
BP43628S,DM,RACE6,Race 6
BP43628S,DM,RFENDTC,Subject Reference End Date/Time
BP43628S,DM,RFICDTC,Date/Time of Informed Consent
BP43628S,DM,RFPENDTC,Date/Time of End of Participation
BP43628S,DM,RFSTDTC,Subject Reference Start Date/Time
BP43628S,DM,RFXENDTC,Date/Time of Last Study Treatment
BP43628S,DM,RFXSTDTC,Date/Time of First Study Treatment
BP43628S,DM,SEX,Sex
BP43628S,DM,SITEID,Study Site Identifier
BP43628S,DM,STUDYID,Study Identifier
BP43628S,DM,SUBJID,Subject Identifier for the Study
BP43628S,DM,USUBJID,Unique Subject Identifier
BP43628S,DS,DOMAIN,Domain Abbreviation
BP43628S,DS,DSCAT,Category for Disposition Event
BP43628S,DS,DSDECOD,Standardized Disposition Term
BP43628S,DS,DSDTC,Date/Time of Collection
BP43628S,DS,DSDY,Study Day of Visit/Collection/Exam
BP43628S,DS,DSPERIOD,Period Subject Continuing Into
BP43628S,DS,DSREFID,Reference ID
BP43628S,DS,DSSCAT,Subcategory for Disposition Event
BP43628S,DS,DSSEQ,Sequence Number
BP43628S,DS,DSSPID,Sponsor-Defined Identifier
BP43628S,DS,DSSTDTC,Start Date/Time of Disposition Event
BP43628S,DS,DSSTDY,Study Day of Start of Disposition Event
BP43628S,DS,DSTERM,Reported Term for the Disposition Event
BP43628S,DS,EPOCH,Epoch
BP43628S,DS,STUDYID,Study Identifier
BP43628S,DS,USUBJID,Unique Subject Identifier
BP43628S,DU,DOMAIN,Domain Abbreviation
BP43628S,DU,DUCAT,Category for Device In-Use
BP43628S,DU,DUDTC,Date/Time Device Used With Test/ Setting
BP43628S,DU,DUDY,Study Day of Observation
BP43628S,DU,DUORRES,Result or Finding in Original Units
BP43628S,DU,DUORRESU,Original Units
BP43628S,DU,DUSEQ,Sequence Number
BP43628S,DU,DUSPID,Sponsor-Defined Identifier
BP43628S,DU,DUSTRESC,Character Result/Finding in Std Format
BP43628S,DU,DUSTRESN,Numeric Result/Finding in Standard Units
BP43628S,DU,DUSTRESU,Standard Units
BP43628S,DU,DUTEST,Device In-Use Test Name
BP43628S,DU,DUTESTCD,Device In-Use Test Short Name
BP43628S,DU,SPDEVID,Sponsor Device Identifier
BP43628S,DU,STUDYID,Study Identifier
BP43628S,DU,USUBJID,Unique Subject Identifier
BP43628S,DU,VISIT,Visit Name
BP43628S,DU,VISITDY,Planned Study Day of Visit
BP43628S,DU,VISITNUM,Visit Number
BP43628S,DV,DOMAIN,Domain Abbreviation
BP43628S,DV,DVCAT,Category for Protocol Deviation
BP43628S,DV,DVDECOD,Protocol Deviation Coded Term
BP43628S,DV,DVEDREAS,Emergency Disruption Related Reason
BP43628S,DV,DVEDRELI,Emergency Disruption Related Indicator
BP43628S,DV,DVEDRETP,Emergency Disruption Related Type
BP43628S,DV,DVENDTC,End Date/Time of Deviation
BP43628S,DV,DVENDY,Study Day of End of Deviation
BP43628S,DV,DVEPRELI,Epi/Pandemic Related Indicator
BP43628S,DV,DVEVAL,Evaluator
BP43628S,DV,DVNAM,Vendor Name
BP43628S,DV,DVREAS,Reason for Deviation
BP43628S,DV,DVREFID,Reference ID
BP43628S,DV,DVSCAT,Subcategory for Protocol Deviation
BP43628S,DV,DVSEQ,Sequence Number
BP43628S,DV,DVSPID,Sponsor-Defined Identifier
BP43628S,DV,DVSTDTC,Start Date/Time of Deviation
BP43628S,DV,DVSTDY,Study Day of Start of Deviation
BP43628S,DV,DVTERM,Protocol Deviation Term
BP43628S,DV,EPOCH,Epoch
BP43628S,DV,STUDYID,Study Identifier
BP43628S,DV,USUBJID,Unique Subject Identifier
BP43628S,EC,DOMAIN,Domain Abbreviation
BP43628S,EC,ECADJ,Reason for Dose Adjustment
BP43628S,EC,ECCAT,Category of Treatment
BP43628S,EC,ECDOSE,Dose
BP43628S,EC,ECDOSFRM,Dose Form
BP43628S,EC,ECDOSFRQ,Dosing Frequency per Interval
BP43628S,EC,ECDOSU,Dose Units
BP43628S,EC,ECENDTC,End Date/Time of Treatment
BP43628S,EC,ECENDY,Study Day of End of Treatment
BP43628S,EC,ECINADJ,Reason for Infusion/Injection Modify
BP43628S,EC,ECLAT,Laterality
BP43628S,EC,ECLNKGRP,Link Group ID
BP43628S,EC,ECLNKID,Link ID
BP43628S,EC,ECLOC,Location of Dose Administration
BP43628S,EC,ECLOT,Lot Number
BP43628S,EC,ECLOT1,Lot Number 1
BP43628S,EC,ECLOT2,Lot Number 2
BP43628S,EC,ECMOOD,Mood
BP43628S,EC,ECOCCUR,Occurrence
BP43628S,EC,ECPRESP,Pre-Specified
BP43628S,EC,ECREASOC,Reason for Study Drug Not Administered
BP43628S,EC,ECROUTE,Route of Administration
BP43628S,EC,ECSEQ,Sequence Number
BP43628S,EC,ECSPID,Sponsor-Defined Identifier
BP43628S,EC,ECSTDTC,Start Date/Time of Treatment
BP43628S,EC,ECSTDY,Study Day of Start of Treatment
BP43628S,EC,ECTRT,Name of Treatment
BP43628S,EC,EPOCH,Epoch
BP43628S,EC,STUDYID,Study Identifier
BP43628S,EC,USUBJID,Unique Subject Identifier
BP43628S,EC,VISIT,Visit Name
BP43628S,EC,VISITDY,Planned Study Day of Visit
BP43628S,EC,VISITNUM,Visit Number
BP43628S,EG,DOMAIN,Domain Abbreviation
BP43628S,EG,EGBLFL,Baseline Flag
BP43628S,EG,EGCAT,Category for ECG
BP43628S,EG,EGCLSIG,Clinically Significant
BP43628S,EG,EGDTC,Date/Time of ECG
BP43628S,EG,EGDY,Study Day of ECG
BP43628S,EG,EGMETHOD,Method of ECG Test
BP43628S,EG,EGORRES,Result or Finding in Original Units
BP43628S,EG,EGORRESU,Original Units
BP43628S,EG,EGPOS,ECG Position of Subject
BP43628S,EG,EGRESTYN,ECG Resting Status of Subject
BP43628S,EG,EGSEQ,Sequence Number
BP43628S,EG,EGSPID,Sponsor-Defined Identifier
BP43628S,EG,EGSTAT,Completion Status
BP43628S,EG,EGSTRESC,Character Result/Finding in Std Format
BP43628S,EG,EGSTRESN,Numeric Result/Finding in Standard Units
BP43628S,EG,EGSTRESU,Standard Units
BP43628S,EG,EGTEST,ECG Test or Examination Name
BP43628S,EG,EGTESTCD,ECG Test or Examination Short Name
BP43628S,EG,EGTPT,Planned Time Point Name
BP43628S,EG,EGTPTNUM,Planned Time Point Number
BP43628S,EG,EPOCH,Epoch
BP43628S,EG,STUDYID,Study Identifier
BP43628S,EG,USUBJID,Unique Subject Identifier
BP43628S,EG,VISIT,Visit Name
BP43628S,EG,VISITDY,Planned Study Day of Visit
BP43628S,EG,VISITNUM,Visit Number
BP43628S,EX,DOMAIN,Domain Abbreviation
BP43628S,EX,EPOCH,Epoch
BP43628S,EX,EXADJ,Reason for Dose Adjustment
BP43628S,EX,EXCAT,Category of Treatment
BP43628S,EX,EXDOSE,Dose
BP43628S,EX,EXDOSFRM,Dose Form
BP43628S,EX,EXDOSFRQ,Dosing Frequency per Interval
BP43628S,EX,EXDOSU,Dose Units
BP43628S,EX,EXENDTC,End Date/Time of Treatment
BP43628S,EX,EXENDY,Study Day of End of Treatment
BP43628S,EX,EXLAT,Laterality
BP43628S,EX,EXLNKGRP,Link Group ID
BP43628S,EX,EXLNKID,Link ID
BP43628S,EX,EXLOC,Location of Dose Administration
BP43628S,EX,EXLOT,Lot Number
BP43628S,EX,EXLOT1,Lot Number 1
BP43628S,EX,EXLOT2,Lot Number 2
BP43628S,EX,EXROUTE,Route of Administration
BP43628S,EX,EXSEQ,Sequence Number
BP43628S,EX,EXSPID,Sponsor-Defined Identifier
BP43628S,EX,EXSTDTC,Start Date/Time of Treatment
BP43628S,EX,EXSTDY,Study Day of Start of Treatment
BP43628S,EX,EXTRT,Name of Treatment
BP43628S,EX,STUDYID,Study Identifier
BP43628S,EX,USUBJID,Unique Subject Identifier
BP43628S,EX,VISIT,Visit Name
BP43628S,EX,VISITDY,Planned Study Day of Visit
BP43628S,EX,VISITNUM,Visit Number
BP43628S,FA,DOMAIN,Domain Abbreviation
BP43628S,FA,EPOCH,Epoch
BP43628S,FA,FABLFL,Baseline Flag
BP43628S,FA,FACAT,Category for Findings About
BP43628S,FA,FADTC,Date/Time of Collection
BP43628S,FA,FADY,Study Day of Collection
BP43628S,FA,FAECADJ,Reason for Dose Modification
BP43628S,FA,FAENDTC,End Date/Time of Observation
BP43628S,FA,FAENDY,Study Day of End of Observation
BP43628S,FA,FAGRPID,Group ID
BP43628S,FA,FALAT,Laterality
BP43628S,FA,FALNKID,Link ID
BP43628S,FA,FALOC,Location of the Finding About
BP43628S,FA,FAOBJ,Object of the Observation
BP43628S,FA,FAORRES,Result or Finding in Original Units
BP43628S,FA,FAORRESU,Original Units
BP43628S,FA,FAREFID,Reference ID
BP43628S,FA,FASEQ,Sequence Number
BP43628S,FA,FASPID,Sponsor-Defined Identifier
BP43628S,FA,FASTDTC,Start Date/Time of Observation
BP43628S,FA,FASTDY,Study Day of Start of Observation
BP43628S,FA,FASTRESC,Character Result/Finding in Std Format
BP43628S,FA,FASTRESN,Numeric Result/Finding in Standard Units
BP43628S,FA,FASTRESU,Standard Units
BP43628S,FA,FATEST,Findings About Test Name
BP43628S,FA,FATESTCD,Findings About Test Short Name
BP43628S,FA,STUDYID,Study Identifier
BP43628S,FA,USUBJID,Unique Subject Identifier
BP43628S,FA,VISIT,Visit Name
BP43628S,FA,VISITDY,Planned Study Day of Visit
BP43628S,FA,VISITNUM,Visit Number
BP43628S,HO,DOMAIN,Domain Abbreviation
BP43628S,HO,EPOCH,Epoch
BP43628S,HO,HOCAT,Category for Healthcare Encounter
BP43628S,HO,HOENDTC,End Date/Time of Healthcare Encounter
BP43628S,HO,HOENDY,Study Day of End of Healthcare Encounter
BP43628S,HO,HOGRPID,Group ID
BP43628S,HO,HOOCCUR,Healthcare Encounter Occurrence
BP43628S,HO,HOPRESP,Pre-Specified Healthcare Encounter
BP43628S,HO,HOSEQ,Sequence Number
BP43628S,HO,HOSPID,Sponsor-Defined Identifier
BP43628S,HO,HOSTDTC,Start Date/Time of Healthcare Encounter
BP43628S,HO,HOSTDY,Study Day of Start of Encounter
BP43628S,HO,HOTERM,Healthcare Encounter Term
BP43628S,HO,STUDYID,Study Identifier
BP43628S,HO,USUBJID,Unique Subject Identifier
BP43628S,IS,DOMAIN,Domain Abbreviation
BP43628S,IS,EPOCH,Epoch
BP43628S,IS,ISAINTP,Assay Interpretation
BP43628S,IS,ISANLDTC,Date/Time of Specimen or Sample Analysis
BP43628S,IS,ISBDAGNT,Binding Agent
BP43628S,IS,ISBLFL,Baseline Flag
BP43628S,IS,ISCAT,Category for Immunogenicity Test
BP43628S,IS,ISDTC,Date/Time of Collection
BP43628S,IS,ISDY,Study Day of Visit/Collection/Exam
BP43628S,IS,ISELTM,Planned Elapsed Time from Time Point Ref
BP43628S,IS,ISFAST,Fasting Status
BP43628S,IS,ISLLOQ,Lower Limit of Quantitation
BP43628S,IS,ISMETHOD,Method of Test or Examination
BP43628S,IS,ISNAM,Vendor Name
BP43628S,IS,ISORRES,Results or Findings in Original Units
BP43628S,IS,ISORRESU,Original Units
BP43628S,IS,ISREASND,Reason Not Done
BP43628S,IS,ISRESSCL,Result Scale
BP43628S,IS,ISRESTYP,Result Type
BP43628S,IS,ISRFTDTC,Date/Time of Reference Time Point
BP43628S,IS,ISSEQ,Sequence Number
BP43628S,IS,ISSMPLID,Alternate Sample Identifier
BP43628S,IS,ISSPCCND,Specimen Condition
BP43628S,IS,ISSPEC,Specimen Type
BP43628S,IS,ISSPID,Sponsor-Defined Identifier
BP43628S,IS,ISSTAT,Completion Status
BP43628S,IS,ISSTRESC,Character Result/Finding in Std Format
BP43628S,IS,ISSTRESN,Numeric Results/Findings in Std. Units
BP43628S,IS,ISSTRESU,Standard Units
BP43628S,IS,ISTEST,Immunogenicity Test or Examination Name
BP43628S,IS,ISTESTCD,Immunogenicity Test/Exam Short Name
BP43628S,IS,ISTPT,Planned Time Point Name
BP43628S,IS,ISTPTNUM,Planned Time Point Number
BP43628S,IS,ISTPTREF,Time Point Reference
BP43628S,IS,PRACCSNM,Prior Vendor/Parental Unique Sample ID
BP43628S,IS,STUDYID,Study Identifier
BP43628S,IS,USUBJID,Unique Subject Identifier
BP43628S,IS,VISIT,Visit Name
BP43628S,IS,VISITDY,Planned Study Day of Visit
BP43628S,IS,VISITNUM,Visit Number
BP43628S,LB,DOMAIN,Domain Abbreviation
BP43628S,LB,EPOCH,Epoch
BP43628S,LB,LBBLFL,Baseline Flag
BP43628S,LB,LBCAT,Category for Lab Test
BP43628S,LB,LBCVNRHI,Reference Range Upper Limit-US CV Units
BP43628S,LB,LBCVNRLO,Reference Range Lower Limit-US CV Units
BP43628S,LB,LBCVRESC,Character Result/Finding in US CV Format
BP43628S,LB,LBCVRESN,Numeric Result/Finding in US CV Format
BP43628S,LB,LBCVRESU,US Conventional Units
BP43628S,LB,LBDTC,Date/Time of Specimen Collection
BP43628S,LB,LBDY,Study Day of Specimen Collection
BP43628S,LB,LBELTM,Planned Elapsed Time from Time Point Ref
BP43628S,LB,LBFAST,Fasting Status
BP43628S,LB,LBFASTHR,Hours Subject Fasted
BP43628S,LB,LBMETHOD,Method of Test or Examination
BP43628S,LB,LBNAM,Vendor Name
BP43628S,LB,LBNRIND,Reference Range Indicator
BP43628S,LB,LBORNRHI,Reference Range Upper Limit in Orig Unit
BP43628S,LB,LBORNRLO,Reference Range Lower Limit in Orig Unit
BP43628S,LB,LBORRES,Result or Finding in Original Units
BP43628S,LB,LBORRESU,Original Units
BP43628S,LB,LBRESSCL,Result Scale
BP43628S,LB,LBRESTYP,Result Type
BP43628S,LB,LBRFTDTC,Date/Time of Reference Time Point
BP43628S,LB,LBSEQ,Sequence Number
BP43628S,LB,LBSPEC,Specimen Type
BP43628S,LB,LBSPID,Sponsor-Defined Identifier
BP43628S,LB,LBSTAT,Completion Status
BP43628S,LB,LBSTNRHI,Reference Range Upper Limit-Std Units
BP43628S,LB,LBSTNRLO,Reference Range Lower Limit-Std Units
BP43628S,LB,LBSTRESC,Character Result/Finding in Std Format
BP43628S,LB,LBSTRESN,Numeric Result/Finding in Standard Units
BP43628S,LB,LBSTRESU,Standard Units
BP43628S,LB,LBTEST,Lab Test or Examination Name
BP43628S,LB,LBTESTCD,Lab Test or Examination Short Name
BP43628S,LB,LBTPT,Planned Time Point Name
BP43628S,LB,LBTPTNUM,Planned Time Point Number
BP43628S,LB,LBTPTREF,Time Point Reference
BP43628S,LB,STUDYID,Study Identifier
BP43628S,LB,USUBJID,Unique Subject Identifier
BP43628S,LB,VISIT,Visit Name
BP43628S,LB,VISITDY,Planned Study Day of Visit
BP43628S,LB,VISITNUM,Visit Number
BP43628S,MB,DOMAIN,Domain Abbreviation
BP43628S,MB,EPOCH,Epoch
BP43628S,MB,MBBLFL,Baseline Flag
BP43628S,MB,MBCAT,Category for Microbiology Finding
BP43628S,MB,MBDTC,Date/Time of Specimen Collection
BP43628S,MB,MBDY,Study Day of MB Specimen Collection
BP43628S,MB,MBORRES,Result or Finding in Original Units
BP43628S,MB,MBORRESU,Original Units
BP43628S,MB,MBRESSCL,Result Scale
BP43628S,MB,MBRESTYP,Result Type
BP43628S,MB,MBSEQ,Sequence Number
BP43628S,MB,MBSPEC,Specimen Type
BP43628S,MB,MBSPID,Sponsor-Defined Identifier
BP43628S,MB,MBSTRESC,Character Result/Finding in Std Format
BP43628S,MB,MBSTRESN,Numeric Result/Finding in Standard Units
BP43628S,MB,MBSTRESU,Standard Units
BP43628S,MB,MBTEST,Microbiology Test or Finding Name
BP43628S,MB,MBTESTCD,Microbiology Test or Finding Short Name
BP43628S,MB,MBTSTDTL,"Measurement, Test or Examination Detail"
BP43628S,MB,STUDYID,Study Identifier
BP43628S,MB,USUBJID,Unique Subject Identifier
BP43628S,MB,VISIT,Visit Name
BP43628S,MB,VISITDY,Planned Study Day of Visit
BP43628S,MB,VISITNUM,Visit Number
BP43628S,MH,DOMAIN,Domain Abbreviation
BP43628S,MH,EPOCH,Epoch
BP43628S,MH,MHBDSYCD,Body System or Organ Class Code
BP43628S,MH,MHBODSYS,Body System or Organ Class
BP43628S,MH,MHCAT,Category for Medical History
BP43628S,MH,MHDECOD,Dictionary-Derived Term
BP43628S,MH,MHDTC,Date/Time of History Collection
BP43628S,MH,MHDY,Study Day of History Collection
BP43628S,MH,MHENDTC,End Date/Time of Medical History Event
BP43628S,MH,MHENDY,Study Day of End of Observation
BP43628S,MH,MHENRTPT,End Relative to Reference Time Point
BP43628S,MH,MHENTPT,End Reference Time Point
BP43628S,MH,MHGRPID,Group ID
BP43628S,MH,MHHLGT,High Level Group Term
BP43628S,MH,MHHLGTCD,High Level Group Term Code
BP43628S,MH,MHHLT,High Level Term
BP43628S,MH,MHHLTCD,High Level Term Code
BP43628S,MH,MHLLT,Lowest Level Term
BP43628S,MH,MHLLTCD,Lowest Level Term Code
BP43628S,MH,MHPTCD,Preferred Term Code
BP43628S,MH,MHSEQ,Sequence Number
BP43628S,MH,MHSOC,Primary System Organ Class
BP43628S,MH,MHSOCCD,Primary System Organ Class Code
BP43628S,MH,MHSPID,Sponsor-Defined Identifier
BP43628S,MH,MHSTDTC,Start Date/Time of Medical History Event
BP43628S,MH,MHSTDY,Study Day of Start of Observation
BP43628S,MH,MHSTRTPT,Start Relative to Reference Time Point
BP43628S,MH,MHSTTPT,Start Reference Time Point
BP43628S,MH,MHTERM,Reported Term for the Medical History
BP43628S,MH,STUDYID,Study Identifier
BP43628S,MH,USUBJID,Unique Subject Identifier
BP43628S,MH,VISIT,Visit Name
BP43628S,MH,VISITDY,Planned Study Day of Visit
BP43628S,MH,VISITNUM,Visit Number
BP43628S,ML,DOMAIN,Domain Abbreviation
BP43628S,ML,EPOCH,Epoch
BP43628S,ML,MLCAT,Category for Meal
BP43628S,ML,MLCMPYN,Did Subject complete the meal?
BP43628S,ML,MLDTC,Date/Time of Collection
BP43628S,ML,MLDY,Study Day of Visit/Collection/Exam
BP43628S,ML,MLELTM,Planned Elapsed Time from Time Point Ref
BP43628S,ML,MLENDTC,End Date/Time of Meal
BP43628S,ML,MLENDY,Study Day of End of Meal
BP43628S,ML,MLRFTDTC,Date/Time of Reference Time Point
BP43628S,ML,MLSEQ,Sequence Number
BP43628S,ML,MLSPID,Sponsor-Defined Identifier
BP43628S,ML,MLSTDTC,Start Date/Time of Meal
BP43628S,ML,MLSTDY,Study Day of Start of Meal
BP43628S,ML,MLTPT,Planned Time Point Name
BP43628S,ML,MLTPTNUM,Planned Time Point Number
BP43628S,ML,MLTPTREF,Time Point Reference
BP43628S,ML,MLTRT,Reported Name of Meal
BP43628S,ML,STUDYID,Study Identifier
BP43628S,ML,USUBJID,Unique Subject Identier
BP43628S,ML,VISIT,Visit Name
BP43628S,ML,VISITDY,Planned Study Day of Visit
BP43628S,ML,VISITNUM,Visit Number
BP43628S,PC,DOMAIN,Domain Abbreviation
BP43628S,PC,EPOCH,Epoch
BP43628S,PC,IPACCSNM,Immediate Parent Unique Sample ID
BP43628S,PC,PCAINTP,Assay Interpretation
BP43628S,PC,PCANLDTC,Date/Time of Specimen or Sample Analysis
BP43628S,PC,PCASPID,Assay Protocol Identifier
BP43628S,PC,PCCAT,Test Category
BP43628S,PC,PCDRVFL,Derived Flag
BP43628S,PC,PCDTC,Date/Time of Specimen Collection
BP43628S,PC,PCDY,Actual Study Day of Specimen Collection
BP43628S,PC,PCELTM,Planned Elapsed Time from Time Point Ref
BP43628S,PC,PCENDTC,End Date/Time of Specimen Collection
BP43628S,PC,PCENDY,Study Day of End of Observation
BP43628S,PC,PCEVLINT,Evaluation Interval
BP43628S,PC,PCFAST,Fasting Status
BP43628S,PC,PCGRPID,Group ID
BP43628S,PC,PCLLOQ,Lower Limit of Quantitation
BP43628S,PC,PCLOC,Location Used for the Measurement
BP43628S,PC,PCMETHOD,Method of Test or Examination
BP43628S,PC,PCNAM,Vendor Name
BP43628S,PC,PCORRES,Result or Finding in Original Units
BP43628S,PC,PCORRESU,Original Units
BP43628S,PC,PCREASND,Reason Test Not Done
BP43628S,PC,PCREFID,Reference ID
BP43628S,PC,PCRFTDTC,Date/Time of Reference Point
BP43628S,PC,PCSCAT,Test Subcategory
BP43628S,PC,PCSEQ,Sequence Number
BP43628S,PC,PCSMPLID,Alternate Sample Identifier
BP43628S,PC,PCSPCCND,Specimen Condition
BP43628S,PC,PCSPEC,Specimen Material Type
BP43628S,PC,PCSPID,Sponsor-Defined Identifier
BP43628S,PC,PCSTAT,Completion Status
BP43628S,PC,PCSTRESC,Character Result/Finding in Std Format
BP43628S,PC,PCSTRESN,Numeric Result/Finding in Standard Units
BP43628S,PC,PCSTRESU,Standard Units
BP43628S,PC,PCTEST,Pharmacokinetic Test Name
BP43628S,PC,PCTESTCD,Pharmacokinetic Test Short Name
BP43628S,PC,PCTPT,Planned Time Point Name
BP43628S,PC,PCTPTNUM,Planned Time Point Number
BP43628S,PC,PCTPTREF,Time Point Reference
BP43628S,PC,PCULOQ,Upper Limit of Quantitation
BP43628S,PC,PRACCSNM,Prior Vendor/Parental Unique Sample ID
BP43628S,PC,STUDYID,Study Identifier
BP43628S,PC,USUBJID,Unique Subject Identifier
BP43628S,PC,VISIT,Visit Name
BP43628S,PC,VISITDY,Planned Study Day of Visit
BP43628S,PC,VISITNUM,Visit Number
BP43628S,PR,DOMAIN,Domain Abbreviation
BP43628S,PR,EPOCH,Epoch
BP43628S,PR,PRCAT,Category
BP43628S,PR,PRDOSE,Dose
BP43628S,PR,PRDOSEU,Dose Units
BP43628S,PR,PRENDTC,End Date/Time of Procedure
BP43628S,PR,PRENDY,Study Day of End of Procedure
BP43628S,PR,PRGRPID,Group ID
BP43628S,PR,PROCCUR,Occurrence
BP43628S,PR,PRPRESP,Pre-specified
BP43628S,PR,PRSEQ,Sequence Number
BP43628S,PR,PRSPID,Sponsor-Defined Identifier
BP43628S,PR,PRSTAT,Completion Status
BP43628S,PR,PRSTDTC,Start Date/Time of Procedure
BP43628S,PR,PRSTDY,Study Day of Start of Procedure
BP43628S,PR,PRSTRTPT,Start Relative to Reference Time Point
BP43628S,PR,PRSTTPT,Start Reference Time Point
BP43628S,PR,PRTRT,Reported Name of Procedure
BP43628S,PR,SPDEVID,Sponsor Device Identifier
BP43628S,PR,STUDYID,Study Identifier
BP43628S,PR,USUBJID,Unique Subject Identifier
BP43628S,PR,VISIT,Visit Name
BP43628S,PR,VISITDY,Planned Study Day of Visit
BP43628S,PR,VISITNUM,Visit Number
BP43628S,RP,DOMAIN,Domain Abbreviation
BP43628S,RP,EPOCH,Epoch
BP43628S,RP,RPBLFL,Baseline Flag
BP43628S,RP,RPCAT,Category for Repro System Findings
BP43628S,RP,RPDTC,Date/Time of Measurements
BP43628S,RP,RPDY,Study Day of Repro System Findings
BP43628S,RP,RPORRES,Result or Finding in Original Units
BP43628S,RP,RPSEQ,Sequence Number
BP43628S,RP,RPSPID,Sponsor-Defined Identifier
BP43628S,RP,RPSTRESC,Character Result/Finding in Std. Format
BP43628S,RP,RPTEST,Reproductive System Findings Test Name
BP43628S,RP,RPTESTCD,Repro System Findings Test Short Name
BP43628S,RP,STUDYID,Study Identifier
BP43628S,RP,USUBJID,Unique Subject Identifier
BP43628S,RP,VISIT,Visit Name
BP43628S,RP,VISITDY,Planned Study Day of Visit
BP43628S,RP,VISITNUM,Visit Number
BP43628S,SC,DOMAIN,Domain Abbreviation
BP43628S,SC,EPOCH,Epoch
BP43628S,SC,SCCAT,Category for Subject Characteristic
BP43628S,SC,SCDTC,Date/Time of Collection
BP43628S,SC,SCDY,Study Day of Examination
BP43628S,SC,SCORRES,Result or Finding in Original Units
BP43628S,SC,SCSEQ,Sequence Number
BP43628S,SC,SCSPID,Sponsor-Defined Identifier
BP43628S,SC,SCSTRESC,Character Result/Finding in Std Format
BP43628S,SC,SCSTRESN,Numeric Result/Finding in Standard Units
BP43628S,SC,SCTEST,Subject Characteristic
BP43628S,SC,SCTESTCD,Subject Characteristic Short Name
BP43628S,SC,STUDYID,Study Identifier
BP43628S,SC,USUBJID,Unique Subject Identifier
BP43628S,SV,DOMAIN,Domain Abbreviation
BP43628S,SV,EPOCH,Epoch
BP43628S,SV,STUDYID,Study Identifier
BP43628S,SV,SVENDTC,End Date/Time of Visit
BP43628S,SV,SVENDY,Study Day of End of Visit
BP43628S,SV,SVOCCUR,Occurrence
BP43628S,SV,SVPRESP,Pre-specified
BP43628S,SV,SVSTDTC,Start Date/Time of Visit
BP43628S,SV,SVSTDY,Study Day of Start of Visit
BP43628S,SV,SVUPDES,Description of Unplanned Visit
BP43628S,SV,USUBJID,Unique Subject Identifier
BP43628S,SV,VISIT,Visit Name
BP43628S,SV,VISITDY,Planned Study Day of Visit
BP43628S,SV,VISITNUM,Visit Number
BP43628S,TI,DOMAIN,Domain Abbreviation
BP43628S,TI,IECAT,Inclusion/Exclusion Category
BP43628S,TI,IETEST,Inclusion/Exclusion Criterion
BP43628S,TI,IETESTCD,Incl/Excl Criterion Short Name
BP43628S,TI,STUDYID,Study Identifier
BP43628S,TI,TIVERS,Protocol Criteria Versions
BP43628S,TS,DOMAIN,Domain Abbreviation
BP43628S,TS,STUDYID,Study Identifier
BP43628S,TS,TSGRPID,Group ID
BP43628S,TS,TSPARM,Trial Summary Parameter
BP43628S,TS,TSPARMCD,Trial Summary Parameter Short Name
BP43628S,TS,TSSEQ,Sequence Number
BP43628S,TS,TSVAL,Parameter Value
BP43628S,TS,TSVALCD,Parameter Value Code
BP43628S,TS,TSVALNF,Parameter Null Flavor
BP43628S,TS,TSVCDREF,Name of the Reference Terminology
BP43628S,TS,TSVCDVER,Version of the Reference Terminology
BP43628S,VS,DOMAIN,Domain Abbreviation
BP43628S,VS,EPOCH,Epoch
BP43628S,VS,STUDYID,Study Identifier
BP43628S,VS,USUBJID,Unique Subject Identifier
BP43628S,VS,VISIT,Visit Name
BP43628S,VS,VISITDY,Planned Study Day of Visit
BP43628S,VS,VISITNUM,Visit Number
BP43628S,VS,VSBLFL,Baseline Flag
BP43628S,VS,VSCAT,Category for Vital Signs
BP43628S,VS,VSDTC,Date/Time of Measurements
BP43628S,VS,VSDY,Study Day of Vital Signs
BP43628S,VS,VSELTM,Planned Elapsed Time from Time Point Ref
BP43628S,VS,VSLOC,Location of Vital Signs Measurement
BP43628S,VS,VSORRES,Result or Finding in Original Units
BP43628S,VS,VSORRESU,Original Units
BP43628S,VS,VSPOS,Vital Signs Position of Subject
BP43628S,VS,VSRFTDTC,Date/Time of Reference Time Point
BP43628S,VS,VSSEQ,Sequence Number
BP43628S,VS,VSSPID,Sponsor-Defined Identifier
BP43628S,VS,VSSTAT,Completion Status
BP43628S,VS,VSSTRESC,Character Result/Finding in Std Format
BP43628S,VS,VSSTRESN,Numeric Result/Finding in Standard Units
BP43628S,VS,VSSTRESU,Standard Units
BP43628S,VS,VSTEST,Vital Signs Test Name
BP43628S,VS,VSTESTCD,Vital Signs Test Short Name
BP43628S,VS,VSTPT,Planned Time Point Name
BP43628S,VS,VSTPTNUM,Planned Time Point Number
BP43628S,VS,VSTPTREF,Time Point Reference
BP43628S,YI,DOMAIN,Domain Abbreviation
BP43628S,YI,STUDYID,Study Identifier
BP43628S,YI,USUBJID,Unique Subject Identifier
BP43628S,YI,YICAT,Category
BP43628S,YI,YICNTRY,Center Country
BP43628S,YI,YICRTN,Clinical Research Task Number
BP43628S,YI,YICSTATE,Center State
BP43628S,YI,YICTCITY,Center City
BP43628S,YI,YICTCNAM,Center Name
BP43628S,YI,YICTCNM1,Center Name 1
BP43628S,YI,YICTCNM2,Center Name 2
BP43628S,YI,YICTCNM3,Center Name 3
BP43628S,YI,YICTCNUM,Center Number
BP43628S,YI,YICTINAM,Center Investigator Name
BP43628S,YI,YICTINUM,Center Investigator Number
BP43628S,YI,YICTZIP,Center Postal Zip Code
BP43628S,YI,YIIADDR1,Investigator Address Line 1
BP43628S,YI,YIIADDR2,Investigator Address Line 2
BP43628S,YI,YIIADDR3,Investigator Address Line 3
BP43628S,YI,YIICITY,Investigator City
BP43628S,YI,YIICNTRY,Investigator Country
BP43628S,YI,YIIEMAIL,Investigator Email ID
BP43628S,YI,YIIFAX,Investigator Fax Number
BP43628S,YI,YIIMNAM,Investigator Middle Name
BP43628S,YI,YIINUM,Investigator Contact Number
BP43628S,YI,YIINUMTP,Investigator Contact Type
BP43628S,YI,YIINVID,Investigator Identifier
BP43628S,YI,YIINVZIP,Investigator Postal Zip Code
BP43628S,YI,YIISTATE,Investigator State
BP43628S,YI,YISEQ,Sequence Number
BP43628S,YI,YISITEID,Site Identifier
BP43628S,YI,YITERM,Reported Term for Event
BP43629S,AE,AEACN,Action Taken with Study Treatment
BP43629S,AE,AEACNOTH,Other Action Taken
BP43629S,AE,AEBDSYCD,Body System or Organ Class Code
BP43629S,AE,AEBODSYS,Body System or Organ Class
BP43629S,AE,AECAT,Category for Adverse Event
BP43629S,AE,AECONTRT,Concomitant or Additional Trtmnt Given
BP43629S,AE,AEDECOD,Dictionary-Derived Term
BP43629S,AE,AEENDTC,End Date/Time of Adverse Event
BP43629S,AE,AEENDY,Study Day of End of Adverse Event
BP43629S,AE,AEGRPID,Group ID
BP43629S,AE,AEHLGT,High Level Group Term
BP43629S,AE,AEHLGTCD,High Level Group Term Code
BP43629S,AE,AEHLT,High Level Term
BP43629S,AE,AEHLTCD,High Level Term Code
BP43629S,AE,AELLT,Lowest Level Term
BP43629S,AE,AELLTCD,Lowest Level Term Code
BP43629S,AE,AEMODIFY,Modified Reported Term
BP43629S,AE,AEOUT,Outcome of Adverse Event
BP43629S,AE,AEPTCD,Preferred Term Code
BP43629S,AE,AEREL,Causality
BP43629S,AE,AESCONG,Congenital Anomaly or Birth Defect
BP43629S,AE,AESDISAB,Persist or Signif Disability/Incapacity
BP43629S,AE,AESDTH,Results in Death
BP43629S,AE,AESEQ,Sequence Number
BP43629S,AE,AESER,Serious Event
BP43629S,AE,AESHOSP,Requires or Prolongs Hospitalization
BP43629S,AE,AESLIFE,Is Life Threatening
BP43629S,AE,AESMIE,Other Medically Important Serious Event
BP43629S,AE,AESOC,Primary System Organ Class
BP43629S,AE,AESOCCD,Primary System Organ Class Code
BP43629S,AE,AESPID,Sponsor-Defined Identifier
BP43629S,AE,AESTDTC,Start Date/Time of Adverse Event
BP43629S,AE,AESTDY,Study Day of Start of Adverse Event
BP43629S,AE,AETERM,Reported Term for the Adverse Event
BP43629S,AE,AETOXGR,Standard Toxicity Grade
BP43629S,AE,DOMAIN,Domain Abbreviation
BP43629S,AE,EPOCH,Epoch
BP43629S,AE,STUDYID,Study Identifier
BP43629S,AE,USUBJID,Unique Subject Identifier
BP43629S,BE,BECAT,Category for Biospecimen Event
BP43629S,BE,BEDECOD,Dictionary-Derived Term
BP43629S,BE,BEDTC,Date/Time of Specimen Collection
BP43629S,BE,BEDY,Study Day of Visit/Collection/Exam
BP43629S,BE,BEELTM,Planned Elapsed Time from Time Point Ref
BP43629S,BE,BEENDTC,End Date/Time of Biospecimen Event
BP43629S,BE,BEENDY,Study Day of End of Biospecimen Event
BP43629S,BE,BEOCCUR,Occurrence
BP43629S,BE,BEPRESP,Pre-specified
BP43629S,BE,BEREFID,Reference ID
BP43629S,BE,BERFTDTC,Date/Time of Reference Point
BP43629S,BE,BESCAT,Subcategory for Biospecimen Event
BP43629S,BE,BESEQ,Sequence Number
BP43629S,BE,BESPID,Sponsor-Defined Identifier
BP43629S,BE,BESTDTC,Start Date/Time of Biospecimen Event
BP43629S,BE,BESTDY,Study Day of Start of Biospecimen Event
BP43629S,BE,BETERM,Reported Term for the Biospecimen Event
BP43629S,BE,BETPT,Planned Time Point Name
BP43629S,BE,BETPTNUM,Planned Time Point Number
BP43629S,BE,BETPTREF,Time Point Reference
BP43629S,BE,DOMAIN,Domain Abbreviation
BP43629S,BE,EPOCH,Epoch
BP43629S,BE,STUDYID,Study Identifier
BP43629S,BE,USUBJID,Unique Subject Identifier
BP43629S,BE,VISIT,Visit Name
BP43629S,BE,VISITDY,Planned Study Day of Visit
BP43629S,BE,VISITNUM,Visit Number
BP43629S,CE,CEBDSYCD,Body System or Organ Class Code
BP43629S,CE,CEBODSYS,Body System or Organ Class
BP43629S,CE,CECAT,Category for Clinical Event
BP43629S,CE,CEDECOD,Dictionary-Derived Term
BP43629S,CE,CEENDTC,End Date/Time of Clinical Event
BP43629S,CE,CEENDY,Study Day of End of Observation
BP43629S,CE,CEGRPID,Group ID
BP43629S,CE,CEHLGT,High Level Group Term
BP43629S,CE,CEHLGTCD,High Level Group Term Code
BP43629S,CE,CEHLT,High Level Term
BP43629S,CE,CEHLTCD,High Level Term Code
BP43629S,CE,CELLT,Lowest Level Term
BP43629S,CE,CELLTCD,Lowest Level Term Code
BP43629S,CE,CEMODIFY,Modified Reported Term
BP43629S,CE,CEOCCUR,Clinical Event Occurrence
BP43629S,CE,CEPRESP,Clinical Event Pre-Specified
BP43629S,CE,CEPTCD,Preferred Term Code
BP43629S,CE,CESEQ,Sequence Number
BP43629S,CE,CESOC,Primary System Organ Class
BP43629S,CE,CESOCCD,Primary System Organ Class Code
BP43629S,CE,CESPID,Sponsor-Defined Identifier
BP43629S,CE,CESTDTC,Start Date/Time of Clinical Event
BP43629S,CE,CESTDY,Study Day of Start of Observation
BP43629S,CE,CETERM,Reported Term for the Clinical Event
BP43629S,CE,CETOXGR,Toxicity Grade
BP43629S,CE,DOMAIN,Domain Abbreviation
BP43629S,CE,EPOCH,Epoch
BP43629S,CE,STUDYID,Study Identifier
BP43629S,CE,USUBJID,Unique Subject Identifier
BP43629S,CM,CMCAT,Category for Medication
BP43629S,CM,CMDECOD,Standardized Medication Name
BP43629S,CM,CMDOSE,Dose per Administration
BP43629S,CM,CMDOSFRQ,Dosing Frequency per Interval
BP43629S,CM,CMDOSU,Dose Units
BP43629S,CM,CMENDTC,End Date/Time of Medication
BP43629S,CM,CMENDY,Study Day of End of Medication
BP43629S,CM,CMENRTPT,End Relative to Reference Time Point
BP43629S,CM,CMENTPT,End Reference Time Point
BP43629S,CM,CMGRPID,Group ID
BP43629S,CM,CMINDC,Indication
BP43629S,CM,CMMODIFY,Modified Reported Name
BP43629S,CM,CMREFID,Reference ID
BP43629S,CM,CMROUTE,Route of Administration
BP43629S,CM,CMSEQ,Sequence Number
BP43629S,CM,CMSPID,Sponsor-Defined Identifier
BP43629S,CM,CMSTDTC,Start Date/Time of Medication
BP43629S,CM,CMSTDY,Study Day of Start of Medication
BP43629S,CM,CMTRT,"Reported Name of Drug, Med, or Therapy"
BP43629S,CM,DOMAIN,Domain Abbreviation
BP43629S,CM,EPOCH,Epoch
BP43629S,CM,STUDYID,Study Identifier
BP43629S,CM,USUBJID,Unique Subject Identifier
BP43629S,CO,COSEQ,Sequence Number
BP43629S,CO,COVAL,Comment
BP43629S,CO,DOMAIN,Domain Abbreviation
BP43629S,CO,IDVAR,Identifying Variable
BP43629S,CO,IDVARVAL,Identifying Variable Value
BP43629S,CO,RDOMAIN,Related Domain Abbreviation
BP43629S,CO,STUDYID,Study Identifier
BP43629S,CO,USUBJID,Unique Subject Identifier
BP43629S,DM,ACTARM,Description of Actual Arm
BP43629S,DM,ACTARMCD,Actual Arm Code
BP43629S,DM,AGE,Age
BP43629S,DM,AGEU,Age Units
BP43629S,DM,ARM,Description of Planned Arm
BP43629S,DM,ARMCD,Planned Arm Code
BP43629S,DM,BRTHDTC,Date/Time of Birth
BP43629S,DM,COUNTRY,Country
BP43629S,DM,DMDTC,Date/Time of Collection
BP43629S,DM,DMDY,Study Day of Collection
BP43629S,DM,DOMAIN,Domain Abbreviation
BP43629S,DM,DTHDTC,Date/Time of Death
BP43629S,DM,DTHFL,Subject Death Flag
BP43629S,DM,ETHNIC,Ethnicity
BP43629S,DM,INVNAM,Investigator Name
BP43629S,DM,RACE,Race
BP43629S,DM,RFENDTC,Subject Reference End Date/Time
BP43629S,DM,RFICDTC,Date/Time of Informed Consent
BP43629S,DM,RFPENDTC,Date/Time of End of Participation
BP43629S,DM,RFSTDTC,Subject Reference Start Date/Time
BP43629S,DM,RFXENDTC,Date/Time of Last Study Treatment
BP43629S,DM,RFXSTDTC,Date/Time of First Study Treatment
BP43629S,DM,SEX,Sex
BP43629S,DM,SITEID,Study Site Identifier
BP43629S,DM,STUDYID,Study Identifier
BP43629S,DM,SUBJID,Subject Identifier for the Study
BP43629S,DM,USUBJID,Unique Subject Identifier
BP43629S,DS,DOMAIN,Domain Abbreviation
BP43629S,DS,DSCAT,Category for Disposition Event
BP43629S,DS,DSDECOD,Standardized Disposition Term
BP43629S,DS,DSSCAT,Subcategory for Disposition Event
BP43629S,DS,DSSEQ,Sequence Number
BP43629S,DS,DSSPID,Sponsor-Defined Identifier
BP43629S,DS,DSSTDTC,Start Date/Time of Disposition Event
BP43629S,DS,DSSTDY,Study Day of Start of Disposition Event
BP43629S,DS,DSTERM,Reported Term for the Disposition Event
BP43629S,DS,EPOCH,Epoch
BP43629S,DS,STUDYID,Study Identifier
BP43629S,DS,USUBJID,Unique Subject Identifier
BP43629S,DV,DOMAIN,Domain Abbreviation
BP43629S,DV,DVCAT,Category for Protocol Deviation
BP43629S,DV,DVDECOD,Protocol Deviation Coded Term
BP43629S,DV,DVSCAT,Subcategory for Protocol Deviation
BP43629S,DV,DVSEQ,Sequence Number
BP43629S,DV,DVSPID,Sponsor-Defined Identifier
BP43629S,DV,DVSTDTC,Start Date/Time of Deviation
BP43629S,DV,DVSTDY,Study Day of Start of Deviation
BP43629S,DV,DVTERM,Protocol Deviation Term
BP43629S,DV,EPOCH,Epoch
BP43629S,DV,STUDYID,Study Identifier
BP43629S,DV,USUBJID,Unique Subject Identifier
BP43629S,EC,DOMAIN,Domain Abbreviation
BP43629S,EC,ECADJ,Reason for Dose Adjustment
BP43629S,EC,ECDOSE,Dose
BP43629S,EC,ECDOSFRM,Dose Form
BP43629S,EC,ECDOSFRQ,Dosing Frequency per Interval
BP43629S,EC,ECDOSU,Dose Units
BP43629S,EC,ECENDTC,End Date/Time of Treatment
BP43629S,EC,ECENDY,Study Day of End of Treatment
BP43629S,EC,ECFAST,Fasting Status
BP43629S,EC,ECGRPID,Group ID
BP43629S,EC,ECLNKGRP,Link Group ID
BP43629S,EC,ECLNKID,Link ID
BP43629S,EC,ECLOT,Lot Number
BP43629S,EC,ECMOOD,Mood
BP43629S,EC,ECOCCUR,Occurrence
BP43629S,EC,ECPRESP,Pre-Specified
BP43629S,EC,ECROUTE,Route of Administration
BP43629S,EC,ECSEQ,Sequence Number
BP43629S,EC,ECSPID,Sponsor-Defined Identifier
BP43629S,EC,ECSTDTC,Start Date/Time of Treatment
BP43629S,EC,ECSTDY,Study Day of Start of Treatment
BP43629S,EC,ECTRT,Name of Treatment
BP43629S,EC,EPOCH,Epoch
BP43629S,EC,STUDYID,Study Identifier
BP43629S,EC,USUBJID,Unique Subject Identifier
BP43629S,EC,VISIT,Visit Name
BP43629S,EC,VISITDY,Planned Study Day of Visit
BP43629S,EC,VISITNUM,Visit Number
BP43629S,EG,DOMAIN,Domain Abbreviation
BP43629S,EG,EGBLFL,Baseline Flag
BP43629S,EG,EGCAT,Category for ECG
BP43629S,EG,EGDTC,Date/Time of ECG
BP43629S,EG,EGDY,Study Day of ECG
BP43629S,EG,EGELTM,Planned Elapsed Time from Time Point Ref
BP43629S,EG,EGMETHOD,Method of ECG Test
BP43629S,EG,EGORRES,Result or Finding in Original Units
BP43629S,EG,EGORRESU,Original Units
BP43629S,EG,EGREASND,Reason ECG Not Performed
BP43629S,EG,EGREFID,ECG Reference ID
BP43629S,EG,EGRFTDTC,Date/Time of Reference Time Point
BP43629S,EG,EGSEQ,Sequence Number
BP43629S,EG,EGSPID,Sponsor-Defined Identifier
BP43629S,EG,EGSTAT,Completion Status
BP43629S,EG,EGSTRESC,Character Result/Finding in Std Format
BP43629S,EG,EGSTRESN,Numeric Result/Finding in Standard Units
BP43629S,EG,EGSTRESU,Standard Units
BP43629S,EG,EGTEST,ECG Test or Examination Name
BP43629S,EG,EGTESTCD,ECG Test or Examination Short Name
BP43629S,EG,EGTPT,Planned Time Point Name
BP43629S,EG,EGTPTNUM,Planned Time Point Number
BP43629S,EG,EGTPTREF,Time Point Reference
BP43629S,EG,EPOCH,Epoch
BP43629S,EG,STUDYID,Study Identifier
BP43629S,EG,USUBJID,Unique Subject Identifier
BP43629S,EG,VISIT,Visit Name
BP43629S,EG,VISITDY,Planned Study Day of Visit
BP43629S,EG,VISITNUM,Visit Number
BP43629S,EX,DOMAIN,Domain Abbreviation
BP43629S,EX,EPOCH,Epoch
BP43629S,EX,EXADJ,Reason for Dose Adjustment
BP43629S,EX,EXDOSE,Dose
BP43629S,EX,EXDOSFRM,Dose Form
BP43629S,EX,EXDOSFRQ,Dosing Frequency per Interval
BP43629S,EX,EXDOSU,Dose Units
BP43629S,EX,EXENDTC,End Date/Time of Treatment
BP43629S,EX,EXENDY,Study Day of End of Treatment
BP43629S,EX,EXFAST,Fasting Status
BP43629S,EX,EXLNKGRP,Link Group ID
BP43629S,EX,EXLNKID,Link ID
BP43629S,EX,EXLOT,Lot Number
BP43629S,EX,EXROUTE,Route of Administration
BP43629S,EX,EXSEQ,Sequence Number
BP43629S,EX,EXSPID,Sponsor-Defined Identifier
BP43629S,EX,EXSTDTC,Start Date/Time of Treatment
BP43629S,EX,EXSTDY,Study Day of Start of Treatment
BP43629S,EX,EXTRT,Name of Treatment
BP43629S,EX,STUDYID,Study Identifier
BP43629S,EX,USUBJID,Unique Subject Identifier
BP43629S,EX,VISIT,Visit Name
BP43629S,EX,VISITDY,Planned Study Day of Visit
BP43629S,EX,VISITNUM,Visit Number
BP43629S,FA,DOMAIN,Domain Abbreviation
BP43629S,FA,EPOCH,Epoch
BP43629S,FA,FACAT,Category for Findings About
BP43629S,FA,FADTC,Date/Time of Collection
BP43629S,FA,FADY,Study Day of Collection
BP43629S,FA,FAELTM,Planned Elapsed Time from Time Point Ref
BP43629S,FA,FAGRPID,Group ID
BP43629S,FA,FAOBJ,Object of the Observation
BP43629S,FA,FAORRES,Result or Finding in Original Units
BP43629S,FA,FAORRESU,Original Units
BP43629S,FA,FAREASND,Reason Not Performed
BP43629S,FA,FAREFID,Reference ID
BP43629S,FA,FARFTDTC,Date/Time of Reference Time Point
BP43629S,FA,FASCAT,Subcategory for Findings About
BP43629S,FA,FASEQ,Sequence Number
BP43629S,FA,FASPID,Sponsor-Defined Identifier
BP43629S,FA,FASTAT,Completion Status
BP43629S,FA,FASTRESC,Character Result/Finding in Std Format
BP43629S,FA,FASTRESN,Numeric Result/Finding in Standard Units
BP43629S,FA,FASTRESU,Standard Units
BP43629S,FA,FATEST,Findings About Test Name
BP43629S,FA,FATESTCD,Findings About Test Short Name
BP43629S,FA,FATPT,Planned Time Point Name
BP43629S,FA,FATPTNUM,Planned Time Point Number
BP43629S,FA,FATPTREF,Time Point Reference
BP43629S,FA,STUDYID,Study Identifier
BP43629S,FA,USUBJID,Unique Subject Identifier
BP43629S,FA,VISIT,Visit Name
BP43629S,FA,VISITDY,Planned Study Day of Visit
BP43629S,FA,VISITNUM,Visit Number
BP43629S,HO,DOMAIN,Domain Abbreviation
BP43629S,HO,EPOCH,Epoch
BP43629S,HO,HOCAT,Category for Healthcare Encounter
BP43629S,HO,HOENDTC,End Date/Time of Healthcare Encounter
BP43629S,HO,HOENDY,Study Day of End of Healthcare Encounter
BP43629S,HO,HOGRPID,Group ID
BP43629S,HO,HOOCCUR,Healthcare Encounter Occurrence
BP43629S,HO,HOPRESP,Pre-Specified Healthcare Encounter
BP43629S,HO,HOSEQ,Sequence Number
BP43629S,HO,HOSPID,Sponsor-Defined Identifier
BP43629S,HO,HOSTDTC,Start Date/Time of Healthcare Encounter
BP43629S,HO,HOSTDY,Study Day of Start of Encounter
BP43629S,HO,HOTERM,Healthcare Encounter Term
BP43629S,HO,STUDYID,Study Identifier
BP43629S,HO,USUBJID,Unique Subject Identifier
BP43629S,LB,DOMAIN,Domain Abbreviation
BP43629S,LB,EPOCH,Epoch
BP43629S,LB,LBBLFL,Baseline Flag
BP43629S,LB,LBCAT,Category for Lab Test
BP43629S,LB,LBDTC,Date/Time of Specimen Collection
BP43629S,LB,LBDY,Study Day of Specimen Collection
BP43629S,LB,LBELTM,Planned Elapsed Time from Time Point Ref
BP43629S,LB,LBFAST,Fasting Status
BP43629S,LB,LBLLOQ,Lower Limit of Quantitation
BP43629S,LB,LBLOINC,LOINC Code
BP43629S,LB,LBMETHOD,Method of Test or Examination
BP43629S,LB,LBNAM,Vendor Name
BP43629S,LB,LBNRIND,Reference Range Indicator
BP43629S,LB,LBORNRHI,Reference Range Upper Limit in Orig Unit
BP43629S,LB,LBORNRLO,Reference Range Lower Limit in Orig Unit
BP43629S,LB,LBORRES,Result or Finding in Original Units
BP43629S,LB,LBORRESU,Original Units
BP43629S,LB,LBREASND,Reason Test Not Done
BP43629S,LB,LBREFID,Specimen ID
BP43629S,LB,LBRFTDTC,Date/Time of Reference Time Point
BP43629S,LB,LBSEQ,Sequence Number
BP43629S,LB,LBSPEC,Specimen Type
BP43629S,LB,LBSPID,Sponsor-Defined Identifier
BP43629S,LB,LBSTAT,Completion Status
BP43629S,LB,LBSTNRC,Reference Range for Char Rslt-Std Units
BP43629S,LB,LBSTNRHI,Reference Range Upper Limit-Std Units
BP43629S,LB,LBSTNRLO,Reference Range Lower Limit-Std Units
BP43629S,LB,LBSTRESC,Character Result/Finding in Std Format
BP43629S,LB,LBSTRESN,Numeric Result/Finding in Standard Units
BP43629S,LB,LBSTRESU,Standard Units
BP43629S,LB,LBTEST,Lab Test or Examination Name
BP43629S,LB,LBTESTCD,Lab Test or Examination Short Name
BP43629S,LB,LBTPT,Planned Time Point Name
BP43629S,LB,LBTPTNUM,Planned Time Point Number
BP43629S,LB,LBTPTREF,Time Point Reference
BP43629S,LB,STUDYID,Study Identifier
BP43629S,LB,USUBJID,Unique Subject Identifier
BP43629S,LB,VISIT,Visit Name
BP43629S,LB,VISITDY,Planned Study Day of Visit
BP43629S,LB,VISITNUM,Visit Number
BP43629S,MB,DOMAIN,Domain Abbreviation
BP43629S,MB,EPOCH,Epoch
BP43629S,MB,MBBLFL,Baseline Flag
BP43629S,MB,MBCAT,Category for Microbiology Finding
BP43629S,MB,MBDTC,Date/Time of Specimen Collection
BP43629S,MB,MBDY,Study Day of MB Specimen Collection
BP43629S,MB,MBFAST,Fasting Status
BP43629S,MB,MBGRPID,Group ID
BP43629S,MB,MBMETHOD,Method of Test or Examination
BP43629S,MB,MBORRES,Result or Finding in Original Units
BP43629S,MB,MBREASND,Reason Microbiology Not Performed
BP43629S,MB,MBRESCAT,Result Category
BP43629S,MB,MBSEQ,Sequence Number
BP43629S,MB,MBSPEC,Specimen Type
BP43629S,MB,MBSPID,Sponsor-Defined Identifier
BP43629S,MB,MBSTAT,Completion Status
BP43629S,MB,MBSTRESC,Character Result/Finding in Std Format
BP43629S,MB,MBTEST,Microbiology Test or Finding Name
BP43629S,MB,MBTESTCD,Microbiology Test or Finding Short Name
BP43629S,MB,STUDYID,Study Identifier
BP43629S,MB,USUBJID,Unique Subject Identifier
BP43629S,MB,VISIT,Visit Name
BP43629S,MB,VISITDY,Planned Study Day of Visit
BP43629S,MB,VISITNUM,Visit Number
BP43629S,MH,DOMAIN,Domain Abbreviation
BP43629S,MH,EPOCH,Epoch
BP43629S,MH,MHBDSYCD,Body System or Organ Class Code
BP43629S,MH,MHBODSYS,Body System or Organ Class
BP43629S,MH,MHCAT,Category for Medical History
BP43629S,MH,MHDECOD,Dictionary-Derived Term
BP43629S,MH,MHDTC,Date/Time of History Collection
BP43629S,MH,MHDY,Study Day of History Collection
BP43629S,MH,MHENDTC,End Date/Time of Medical History Event
BP43629S,MH,MHENDY,Study Day of End of Observation
BP43629S,MH,MHENRF,End Relative to Reference Period
BP43629S,MH,MHGRPID,Group ID
BP43629S,MH,MHHLGT,High Level Group Term
BP43629S,MH,MHHLGTCD,High Level Group Term Code
BP43629S,MH,MHHLT,High Level Term
BP43629S,MH,MHHLTCD,High Level Term Code
BP43629S,MH,MHLLT,Lowest Level Term
BP43629S,MH,MHLLTCD,Lowest Level Term Code
BP43629S,MH,MHMODIFY,Modified Reported Term
BP43629S,MH,MHPTCD,Preferred Term Code
BP43629S,MH,MHSEQ,Sequence Number
BP43629S,MH,MHSOC,Primary System Organ Class
BP43629S,MH,MHSOCCD,Primary System Organ Class Code
BP43629S,MH,MHSPID,Sponsor-Defined Identifier
BP43629S,MH,MHSTDTC,Start Date/Time of Medical History Event
BP43629S,MH,MHSTDY,Study Day of Start of Observation
BP43629S,MH,MHTERM,Reported Term for the Medical History
BP43629S,MH,STUDYID,Study Identifier
BP43629S,MH,USUBJID,Unique Subject Identifier
BP43629S,ML,DOMAIN,Domain Abbreviation
BP43629S,ML,EPOCH,Epoch
BP43629S,ML,MLCAT,Category for Meal
BP43629S,ML,MLELTM,Planned Elapsed Time from Time Point Ref
BP43629S,ML,MLENDTC,End Date/Time of Meal
BP43629S,ML,MLENDY,Study Day of End of Meal
BP43629S,ML,MLOCCUR,ML Occurrence
BP43629S,ML,MLPRESP,ML Pre-Specified
BP43629S,ML,MLRFTDTC,Date/Time of Reference Time Point
BP43629S,ML,MLSEQ,Sequence Number
BP43629S,ML,MLSPID,Sponsor-Defined Identifier
BP43629S,ML,MLSTDTC,Start Date/Time of Meal
BP43629S,ML,MLSTDY,Study Day of Start of Meal
BP43629S,ML,MLTPT,Planned Time Point Name
BP43629S,ML,MLTPTNUM,Planned Time Point Number
BP43629S,ML,MLTPTREF,Time Point Reference
BP43629S,ML,MLTRT,Reported Name of Meal
BP43629S,ML,STUDYID,Study Identifier
BP43629S,ML,USUBJID,Unique Subject Identifier
BP43629S,ML,VISIT,Visit Name
BP43629S,ML,VISITDY,Planned Study Day of Visit
BP43629S,ML,VISITNUM,Visit Number
BP43629S,PC,DOMAIN,Domain Abbreviation
BP43629S,PC,EPOCH,Epoch
BP43629S,PC,PCCAT,Test Category
BP43629S,PC,PCDTC,Date/Time of Specimen Collection
BP43629S,PC,PCDY,Actual Study Day of Specimen Collection
BP43629S,PC,PCELTM,Planned Elapsed Time from Time Point Ref
BP43629S,PC,PCGRPID,Group ID
BP43629S,PC,PCLLOQ,Lower Limit of Quantitation
BP43629S,PC,PCNAM,Vendor Name
BP43629S,PC,PCORRES,Result or Finding in Original Units
BP43629S,PC,PCORRESU,Original Units
BP43629S,PC,PCREASND,Reason Test Not Done
BP43629S,PC,PCRFTDTC,Date/Time of Reference Point
BP43629S,PC,PCSCAT,Test Subcategory
BP43629S,PC,PCSEQ,Sequence Number
BP43629S,PC,PCSPEC,Specimen Material Type
BP43629S,PC,PCSPID,Sponsor-Defined Identifier
BP43629S,PC,PCSTAT,Completion Status
BP43629S,PC,PCSTRESC,Character Result/Finding in Std Format
BP43629S,PC,PCSTRESN,Numeric Result/Finding in Standard Units
BP43629S,PC,PCSTRESU,Standard Units
BP43629S,PC,PCTEST,Pharmacokinetic Test Name
BP43629S,PC,PCTESTCD,Pharmacokinetic Test Short Name
BP43629S,PC,PCTPT,Planned Time Point Name
BP43629S,PC,PCTPTNUM,Planned Time Point Number
BP43629S,PC,PCTPTREF,Time Point Reference
BP43629S,PC,STUDYID,Study Identifier
BP43629S,PC,USUBJID,Unique Subject Identifier
BP43629S,PC,VISIT,Visit Name
BP43629S,PC,VISITDY,Planned Study Day of Visit
BP43629S,PC,VISITNUM,Visit Number
BP43629S,PE,DOMAIN,Domain Abbreviation
BP43629S,PE,EPOCH,Epoch
BP43629S,PE,PECAT,Category for Examination
BP43629S,PE,PEDTC,Date/Time of Examination
BP43629S,PE,PEDY,Study Day of Examination
BP43629S,PE,PEORRES,Verbatim Examination Finding
BP43629S,PE,PESEQ,Sequence Number
BP43629S,PE,PESPID,Sponsor-Defined Identifier
BP43629S,PE,PESTRESC,Character Result/Finding in Std Format
BP43629S,PE,PETEST,Body System Examined
BP43629S,PE,PETESTCD,Body System Examined Short Name
BP43629S,PE,STUDYID,Study Identifier
BP43629S,PE,USUBJID,Unique Subject Identifier
BP43629S,PE,VISIT,Visit Name
BP43629S,PE,VISITDY,Planned Study Day of Visit
BP43629S,PE,VISITNUM,Visit Number
BP43629S,PP,DOMAIN,Domain Abbreviation
BP43629S,PP,PPCAT,Parameter Category
BP43629S,PP,PPENINT,Planned End of Assessment Interval
BP43629S,PP,PPGRPID,Group ID
BP43629S,PP,PPORRES,Result or Finding in Original Units
BP43629S,PP,PPORRESU,Original Units
BP43629S,PP,PPREASND,Reason Parameter Not Calculated
BP43629S,PP,PPRFTDTC,Date/Time of Reference Point
BP43629S,PP,PPSEQ,Sequence Number
BP43629S,PP,PPSPEC,Specimen Material Type
BP43629S,PP,PPSPID,Sponsor-Defined Identifier
BP43629S,PP,PPSTAT,Completion Status
BP43629S,PP,PPSTINT,Planned Start of Assessment Interval
BP43629S,PP,PPSTRESC,Character Result/Finding in Std Format
BP43629S,PP,PPSTRESN,Numeric Result/Finding in Standard Units
BP43629S,PP,PPSTRESU,Standard Units
BP43629S,PP,PPTEST,Parameter Name
BP43629S,PP,PPTESTCD,Parameter Short Name
BP43629S,PP,PPTPTREF,Time Point Reference
BP43629S,PP,STUDYID,Study Identifier
BP43629S,PP,USUBJID,Unique Subject Identifier
BP43629S,PR,DOMAIN,Domain Abbreviation
BP43629S,PR,EPOCH,Epoch
BP43629S,PR,PRELTM,Planned Elapsed Time from Time Point Ref
BP43629S,PR,PRGRPID,Group ID
BP43629S,PR,PROCCUR,Occurrence
BP43629S,PR,PRPRESP,Pre-specified
BP43629S,PR,PRRFTDTC,Date/Time of Reference Time Point
BP43629S,PR,PRSEQ,Sequence Number
BP43629S,PR,PRSPID,Sponsor-Defined Identifier
BP43629S,PR,PRSTDTC,Start Date/Time of Procedure
BP43629S,PR,PRSTDY,Study Day of Start of Procedure
BP43629S,PR,PRTPT,Planned Time Point Name
BP43629S,PR,PRTPTNUM,Planned Time Point Number
BP43629S,PR,PRTPTREF,Time Point Reference
BP43629S,PR,PRTRT,Reported Name of Procedure
BP43629S,PR,STUDYID,Study Identifier
BP43629S,PR,USUBJID,Unique Subject Identifier
BP43629S,PR,VISIT,Visit Name
BP43629S,PR,VISITDY,Planned Study Day of Visit
BP43629S,PR,VISITNUM,Visit Number
BP43629S,RE,DOMAIN,Domain Abbreviation
BP43629S,RE,EPOCH,Epoch
BP43629S,RE,REBLFL,Baseline Flag
BP43629S,RE,RECAT,Category
BP43629S,RE,REDTC,Date/Time of Collection
BP43629S,RE,REDY,Study Day of Visit/Collection/Exam
BP43629S,RE,REGRPID,Group ID
BP43629S,RE,REMETHOD,Method of Test or Examination
BP43629S,RE,REORRES,Result or Finding in Original Units
BP43629S,RE,REORRESU,Original Units
BP43629S,RE,REREASND,Reason Not Done
BP43629S,RE,RESEQ,Sequence Number
BP43629S,RE,RESPID,Sponsor-Defined Identifier
BP43629S,RE,RESTAT,Completion Status
BP43629S,RE,RESTRESC,Result or Finding in Standard Format
BP43629S,RE,RESTRESN,Numeric Result/Finding in Standard Units
BP43629S,RE,RESTRESU,Standard Units
BP43629S,RE,RETEST,"Name of Measurement, Test or Examination"
BP43629S,RE,RETESTCD,Test or Examination Short Name
BP43629S,RE,STUDYID,Study Identifier
BP43629S,RE,USUBJID,Unique Subject Identifier
BP43629S,RE,VISIT,Visit Name
BP43629S,RE,VISITDY,Planned Study Day of Visit
BP43629S,RE,VISITNUM,Visit Number
BP43629S,RELREC,IDVAR,Identifying Variable
BP43629S,RELREC,IDVARVAL,Identifying Variable Value
BP43629S,RELREC,RDOMAIN,Related Domain Abbreviation
BP43629S,RELREC,RELID,Relationship Identifier
BP43629S,RELREC,RELTYPE,Relationship Type
BP43629S,RELREC,STUDYID,Study Identifier
BP43629S,RELREC,USUBJID,Unique Subject Identifier
BP43629S,RP,DOMAIN,Domain Abbreviation
BP43629S,RP,EPOCH,Epoch
BP43629S,RP,RPBLFL,Baseline Flag
BP43629S,RP,RPCAT,Category for Repro System Findings
BP43629S,RP,RPDTC,Date/Time of Measurements
BP43629S,RP,RPDY,Study Day of Repro System Findings
BP43629S,RP,RPORRES,Result or Finding in Original Units
BP43629S,RP,RPORRESU,Original Units
BP43629S,RP,RPSEQ,Sequence Number
BP43629S,RP,RPSPID,Sponsor-Defined Identifier
BP43629S,RP,RPSTRESC,Character Result/Finding in Std. Format
BP43629S,RP,RPSTRESN,Numeric Result/Finding in Standard Units
BP43629S,RP,RPSTRESU,Standard Units
BP43629S,RP,RPTEST,Reproductive System Findings Test Name
BP43629S,RP,RPTESTCD,Repro System Findings Test Short Name
BP43629S,RP,STUDYID,Study Identifier
BP43629S,RP,USUBJID,Unique Subject Identifier
BP43629S,RP,VISIT,Visit Name
BP43629S,RP,VISITDY,Planned Study Day of Visit
BP43629S,RP,VISITNUM,Visit Number
BP43629S,SE,DOMAIN,Domain Abbreviation
BP43629S,SE,ELEMENT,Description of Element
BP43629S,SE,EPOCH,Epoch
BP43629S,SE,ETCD,Element Code
BP43629S,SE,SEENDTC,End Date/Time of Element
BP43629S,SE,SEENDY,Study Day of End of Element
BP43629S,SE,SESEQ,Sequence Number
BP43629S,SE,SESTDTC,Start Date/Time of Element
BP43629S,SE,SESTDY,Study Day of Start of Element
BP43629S,SE,STUDYID,Study Identifier
BP43629S,SE,TAETORD,Planned Order of Element within Arm
BP43629S,SE,USUBJID,Unique Subject Identifier
BP43629S,SUPPAE,IDVAR,Identifying Variable
BP43629S,SUPPAE,IDVARVAL,Identifying Variable Value
BP43629S,SUPPAE,QEVAL,Evaluator
BP43629S,SUPPAE,QLABEL,Qualifier Variable Label
BP43629S,SUPPAE,QNAM,Qualifier Variable Name
BP43629S,SUPPAE,QORIG,Origin
BP43629S,SUPPAE,QVAL,Data Value
BP43629S,SUPPAE,RDOMAIN,Related Domain Abbreviation
BP43629S,SUPPAE,STUDYID,Study Identifier
BP43629S,SUPPAE,USUBJID,Unique Subject Identifier
BP43629S,SUPPBE,IDVAR,Identifying Variable
BP43629S,SUPPBE,IDVARVAL,Identifying Variable Value
BP43629S,SUPPBE,QEVAL,Evaluator
BP43629S,SUPPBE,QLABEL,Qualifier Variable Label
BP43629S,SUPPBE,QNAM,Qualifier Variable Name
BP43629S,SUPPBE,QORIG,Origin
BP43629S,SUPPBE,QVAL,Data Value
BP43629S,SUPPBE,RDOMAIN,Related Domain Abbreviation
BP43629S,SUPPBE,STUDYID,Study Identifier
BP43629S,SUPPBE,USUBJID,Unique Subject Identifier
BP43629S,SUPPCE,IDVAR,Identifying Variable
BP43629S,SUPPCE,IDVARVAL,Identifying Variable Value
BP43629S,SUPPCE,QEVAL,Evaluator
BP43629S,SUPPCE,QLABEL,Qualifier Variable Label
BP43629S,SUPPCE,QNAM,Qualifier Variable Name
BP43629S,SUPPCE,QORIG,Origin
BP43629S,SUPPCE,QVAL,Data Value
BP43629S,SUPPCE,RDOMAIN,Related Domain Abbreviation
BP43629S,SUPPCE,STUDYID,Study Identifier
BP43629S,SUPPCE,USUBJID,Unique Subject Identifier
BP43629S,SUPPCM,IDVAR,Identifying Variable
BP43629S,SUPPCM,IDVARVAL,Identifying Variable Value
BP43629S,SUPPCM,QEVAL,Evaluator
BP43629S,SUPPCM,QLABEL,Qualifier Variable Label
BP43629S,SUPPCM,QNAM,Qualifier Variable Name
BP43629S,SUPPCM,QORIG,Origin
BP43629S,SUPPCM,QVAL,Data Value
BP43629S,SUPPCM,RDOMAIN,Related Domain Abbreviation
BP43629S,SUPPCM,STUDYID,Study Identifier
BP43629S,SUPPCM,USUBJID,Unique Subject Identifier
BP43629S,SUPPDM,IDVAR,Identifying Variable
BP43629S,SUPPDM,IDVARVAL,Identifying Variable Value
BP43629S,SUPPDM,QEVAL,Evaluator
BP43629S,SUPPDM,QLABEL,Qualifier Variable Label
BP43629S,SUPPDM,QNAM,Qualifier Variable Name
BP43629S,SUPPDM,QORIG,Origin
BP43629S,SUPPDM,QVAL,Data Value
BP43629S,SUPPDM,RDOMAIN,Related Domain Abbreviation
BP43629S,SUPPDM,STUDYID,Study Identifier
BP43629S,SUPPDM,USUBJID,Unique Subject Identifier
BP43629S,SUPPDV,IDVAR,Identifying Variable
BP43629S,SUPPDV,IDVARVAL,Identifying Variable Value
BP43629S,SUPPDV,QEVAL,Evaluator
BP43629S,SUPPDV,QLABEL,Qualifier Variable Label
BP43629S,SUPPDV,QNAM,Qualifier Variable Name
BP43629S,SUPPDV,QORIG,Origin
BP43629S,SUPPDV,QVAL,Data Value
BP43629S,SUPPDV,RDOMAIN,Related Domain Abbreviation
BP43629S,SUPPDV,STUDYID,Study Identifier
BP43629S,SUPPDV,USUBJID,Unique Subject Identifier
BP43629S,SUPPEC,IDVAR,Identifying Variable
BP43629S,SUPPEC,IDVARVAL,Identifying Variable Value
BP43629S,SUPPEC,QEVAL,Evaluator
BP43629S,SUPPEC,QLABEL,Qualifier Variable Label
BP43629S,SUPPEC,QNAM,Qualifier Variable Name
BP43629S,SUPPEC,QORIG,Origin
BP43629S,SUPPEC,QVAL,Data Value
BP43629S,SUPPEC,RDOMAIN,Related Domain Abbreviation
BP43629S,SUPPEC,STUDYID,Study Identifier
BP43629S,SUPPEC,USUBJID,Unique Subject Identifier
BP43629S,SUPPEG,IDVAR,Identifying Variable
BP43629S,SUPPEG,IDVARVAL,Identifying Variable Value
BP43629S,SUPPEG,QEVAL,Evaluator
BP43629S,SUPPEG,QLABEL,Qualifier Variable Label
BP43629S,SUPPEG,QNAM,Qualifier Variable Name
BP43629S,SUPPEG,QORIG,Origin
BP43629S,SUPPEG,QVAL,Data Value
BP43629S,SUPPEG,RDOMAIN,Related Domain Abbreviation
BP43629S,SUPPEG,STUDYID,Study Identifier
BP43629S,SUPPEG,USUBJID,Unique Subject Identifier
BP43629S,SUPPLB,IDVAR,Identifying Variable
BP43629S,SUPPLB,IDVARVAL,Identifying Variable Value
BP43629S,SUPPLB,QEVAL,Evaluator
BP43629S,SUPPLB,QLABEL,Qualifier Variable Label
BP43629S,SUPPLB,QNAM,Qualifier Variable Name
BP43629S,SUPPLB,QORIG,Origin
BP43629S,SUPPLB,QVAL,Data Value
BP43629S,SUPPLB,RDOMAIN,Related Domain Abbreviation
BP43629S,SUPPLB,STUDYID,Study Identifier
BP43629S,SUPPLB,USUBJID,Unique Subject Identifier
BP43629S,SUPPML,IDVAR,Identifying Variable
BP43629S,SUPPML,IDVARVAL,Identifying Variable Value
BP43629S,SUPPML,QEVAL,Evaluator
BP43629S,SUPPML,QLABEL,Qualifier Variable Label
BP43629S,SUPPML,QNAM,Qualifier Variable Name
BP43629S,SUPPML,QORIG,Origin
BP43629S,SUPPML,QVAL,Data Value
BP43629S,SUPPML,RDOMAIN,Related Domain Abbreviation
BP43629S,SUPPML,STUDYID,Study Identifier
BP43629S,SUPPML,USUBJID,Unique Subject Identifier
BP43629S,SUPPPC,IDVAR,Identifying Variable
BP43629S,SUPPPC,IDVARVAL,Identifying Variable Value
BP43629S,SUPPPC,QEVAL,Evaluator
BP43629S,SUPPPC,QLABEL,Qualifier Variable Label
BP43629S,SUPPPC,QNAM,Qualifier Variable Name
BP43629S,SUPPPC,QORIG,Origin
BP43629S,SUPPPC,QVAL,Data Value
BP43629S,SUPPPC,RDOMAIN,Related Domain Abbreviation
BP43629S,SUPPPC,STUDYID,Study Identifier
BP43629S,SUPPPC,USUBJID,Unique Subject Identifier
BP43629S,SUPPPP,IDVAR,Identifying Variable
BP43629S,SUPPPP,IDVARVAL,Identifying Variable Value
BP43629S,SUPPPP,QEVAL,Evaluator
BP43629S,SUPPPP,QLABEL,Qualifier Variable Label
BP43629S,SUPPPP,QNAM,Qualifier Variable Name
BP43629S,SUPPPP,QORIG,Origin
BP43629S,SUPPPP,QVAL,Data Value
BP43629S,SUPPPP,RDOMAIN,Related Domain Abbreviation
BP43629S,SUPPPP,STUDYID,Study Identifier
BP43629S,SUPPPP,USUBJID,Unique Subject Identifier
BP43629S,SUPPPR,IDVAR,Identifying Variable
BP43629S,SUPPPR,IDVARVAL,Identifying Variable Value
BP43629S,SUPPPR,QEVAL,Evaluator
BP43629S,SUPPPR,QLABEL,Qualifier Variable Label
BP43629S,SUPPPR,QNAM,Qualifier Variable Name
BP43629S,SUPPPR,QORIG,Origin
BP43629S,SUPPPR,QVAL,Data Value
BP43629S,SUPPPR,RDOMAIN,Related Domain Abbreviation
BP43629S,SUPPPR,STUDYID,Study Identifier
BP43629S,SUPPPR,USUBJID,Unique Subject Identifier
BP43629S,SV,DOMAIN,Domain Abbreviation
BP43629S,SV,EPOCH,Epoch
BP43629S,SV,STUDYID,Study Identifier
BP43629S,SV,SVENDTC,End Date/Time of Visit
BP43629S,SV,SVENDY,Study Day of End of Visit
BP43629S,SV,SVSEQ,Sequence Number
BP43629S,SV,SVSTDTC,Start Date/Time of Visit
BP43629S,SV,SVSTDY,Study Day of Start of Visit
BP43629S,SV,SVUPDES,Description of Unplanned Visit
BP43629S,SV,USUBJID,Unique Subject Identifier
BP43629S,SV,VISIT,Visit Name
BP43629S,SV,VISITDY,Planned Study Day of Visit
BP43629S,SV,VISITNUM,Visit Number
BP43629S,TA,ARM,Description of Planned Arm
BP43629S,TA,ARMCD,Planned Arm Code
BP43629S,TA,DOMAIN,Domain Abbreviation
BP43629S,TA,ELEMENT,Description of Element
BP43629S,TA,EPOCH,Epoch
BP43629S,TA,ETCD,Element Code
BP43629S,TA,STUDYID,Study Identifier
BP43629S,TA,TABRANCH,Branch
BP43629S,TA,TAETORD,Planned Order of Element within Arm
BP43629S,TA,TATRANS,Transition Rule
BP43629S,TE,DOMAIN,Domain Abbreviation
BP43629S,TE,ELEMENT,Description of Element
BP43629S,TE,ETCD,Element Code
BP43629S,TE,STUDYID,Study Identifier
BP43629S,TE,TEDUR,Planned Duration of Element
BP43629S,TE,TEENRL,Rule for End of Element
BP43629S,TE,TESTRL,Rule for Start of Element
BP43629S,TI,DOMAIN,Domain Abbreviation
BP43629S,TI,IECAT,Inclusion/Exclusion Category
BP43629S,TI,IETEST,Inclusion/Exclusion Criterion
BP43629S,TI,IETESTCD,Incl/Excl Criterion Short Name
BP43629S,TI,STUDYID,Study Identifier
BP43629S,TI,TIVERS,Protocol Criteria Versions
BP43629S,TS,DOMAIN,Domain Abbreviation
BP43629S,TS,STUDYID,Study Identifier
BP43629S,TS,TSGRPID,Group ID
BP43629S,TS,TSPARM,Trial Summary Parameter
BP43629S,TS,TSPARMCD,Trial Summary Parameter Short Name
BP43629S,TS,TSSEQ,Sequence Number
BP43629S,TS,TSVAL,Parameter Value
BP43629S,TS,TSVAL1,Parameter Value 1
BP43629S,TS,TSVALCD,Parameter Value Code
BP43629S,TS,TSVALNF,Parameter Null Flavor
BP43629S,TS,TSVCDREF,Name of the Reference Terminology
BP43629S,TS,TSVCDVER,Version of the Reference Terminology
BP43629S,TV,ARM,Description of Planned Arm
BP43629S,TV,ARMCD,Planned Arm Code
BP43629S,TV,DOMAIN,Domain Abbreviation
BP43629S,TV,STUDYID,Study Identifier
BP43629S,TV,TVENRL,Visit End Rule
BP43629S,TV,TVSTRL,Visit Start Rule
BP43629S,TV,VISIT,Visit Name
BP43629S,TV,VISITDY,Planned Study Day of Visit
BP43629S,TV,VISITNUM,Visit Number
BP43629S,VS,DOMAIN,Domain Abbreviation
BP43629S,VS,EPOCH,Epoch
BP43629S,VS,STUDYID,Study Identifier
BP43629S,VS,USUBJID,Unique Subject Identifier
BP43629S,VS,VISIT,Visit Name
BP43629S,VS,VISITDY,Planned Study Day of Visit
BP43629S,VS,VISITNUM,Visit Number
BP43629S,VS,VSBLFL,Baseline Flag
BP43629S,VS,VSCAT,Category for Vital Signs
BP43629S,VS,VSDTC,Date/Time of Measurements
BP43629S,VS,VSDY,Study Day of Vital Signs
BP43629S,VS,VSELTM,Planned Elapsed Time from Time Point Ref
BP43629S,VS,VSGRPID,Group ID
BP43629S,VS,VSLOC,Location of Vital Signs Measurement
BP43629S,VS,VSORRES,Result or Finding in Original Units
BP43629S,VS,VSORRESU,Original Units
BP43629S,VS,VSPOS,Vital Signs Position of Subject
BP43629S,VS,VSREASND,Reason Not Performed
BP43629S,VS,VSRFTDTC,Date/Time of Reference Time Point
BP43629S,VS,VSSEQ,Sequence Number
BP43629S,VS,VSSPID,Sponsor-Defined Identifier
BP43629S,VS,VSSTAT,Completion Status
BP43629S,VS,VSSTRESC,Character Result/Finding in Std Format
BP43629S,VS,VSSTRESN,Numeric Result/Finding in Standard Units
BP43629S,VS,VSSTRESU,Standard Units
BP43629S,VS,VSTEST,Vital Signs Test Name
BP43629S,VS,VSTESTCD,Vital Signs Test Short Name
BP43629S,VS,VSTPT,Planned Time Point Name
BP43629S,VS,VSTPTNUM,Planned Time Point Number
BP43629S,VS,VSTPTREF,Time Point Reference
BP43629V,ADAE,ADURAE,Analysis Duration of Adverse Event
BP43629V,ADAE,ADURN,Analysis Duration (N)
BP43629V,ADAE,ADURU,Analysis Duration Units
BP43629V,ADAE,AEACN,Action Taken with Study Treatment
BP43629V,ADAE,AEACNN,Action Taken with Study Treatment (N)
BP43629V,ADAE,AEACNOTH,Other Action Taken
BP43629V,ADAE,AEBDSYCD,Body System or Organ Class Code
BP43629V,ADAE,AEBODSYS,Body System or Organ Class
BP43629V,ADAE,AECAT,Category for Adverse Event
BP43629V,ADAE,AECONTRT,Concomitant or Additional Trtmnt Given
BP43629V,ADAE,AEDECOD,Dictionary-Derived Term
BP43629V,ADAE,AEDLAE,Dose Limiting Adverse Event?
BP43629V,ADAE,AEENDTC,End Date/Time of Adverse Event
BP43629V,ADAE,AEENDY,Study Day of End of Adverse Event
BP43629V,ADAE,AEGRPID,Group ID
BP43629V,ADAE,AEHLGT,High Level Group Term
BP43629V,ADAE,AEHLGTCD,High Level Group Term Code
BP43629V,ADAE,AEHLT,High Level Term
BP43629V,ADAE,AEHLTCD,High Level Term Code
BP43629V,ADAE,AEIRR,Infusion Related Reaction?
BP43629V,ADAE,AEIRRTPT,Infusion Reaction Timepoint
BP43629V,ADAE,AEIRRY,Infusion Reaction Type
BP43629V,ADAE,AEITOXGR,Initial Toxicity Grade
BP43629V,ADAE,AELLT,Lowest Level Term
BP43629V,ADAE,AELLTCD,Lowest Level Term Code
BP43629V,ADAE,AEMODIFY,Modified Reported Term
BP43629V,ADAE,AENDT,Analysis End Date
BP43629V,ADAE,AENDTF,Analysis End Date Imputation Flag
BP43629V,ADAE,AENDTM,Analysis End Date/Time
BP43629V,ADAE,AENDY,Analysis End Relative Day
BP43629V,ADAE,AENSAESI,Non-serious AE of Special Interest?
BP43629V,ADAE,AENTM,Analysis End Time
BP43629V,ADAE,AENTMF,Analysis End Time Imputation Flag
BP43629V,ADAE,AEOUT,Outcome of Adverse Event
BP43629V,ADAE,AEOUTN,Outcome of Adverse Event (N)
BP43629V,ADAE,AEPTCD,Preferred Term Code
BP43629V,ADAE,AEREL,Causality
BP43629V,ADAE,AERELN,Causality (N)
BP43629V,ADAE,AERELNS1,Relationship to Non-Study Treatment 1
BP43629V,ADAE,AERELNS2,Relationship to Non-Study Treatment 2
BP43629V,ADAE,AERELNS3,Relationship to Non-Study Treatment 3
BP43629V,ADAE,AESAEDTC,Date SAE became serious
BP43629V,ADAE,AESCONG,Congenital Anomaly or Birth Defect
BP43629V,ADAE,AESDISAB,Persist or Signif Disability/Incapacity
BP43629V,ADAE,AESDTH,Results in Death
BP43629V,ADAE,AESEQ,Sequence Number
BP43629V,ADAE,AESER,Serious Event
BP43629V,ADAE,AESERN,Serious Event (N)
BP43629V,ADAE,AESHOSP,Requires or Prolongs Hospitalization
BP43629V,ADAE,AESLIFE,Is Life Threatening
BP43629V,ADAE,AESMIE,Other Medically Important Serious Event
BP43629V,ADAE,AESOC,Primary System Organ Class
BP43629V,ADAE,AESOCCD,Primary System Organ Class Code
BP43629V,ADAE,AESPID,Sponsor-Defined Identifier
BP43629V,ADAE,AESTDTC,Start Date/Time of Adverse Event
BP43629V,ADAE,AESTDY,Study Day of Start of Adverse Event
BP43629V,ADAE,AETERM,Reported Term for the Adverse Event
BP43629V,ADAE,AETOXGR,Standard Toxicity Grade
BP43629V,ADAE,AETOXGRN,Standard Toxicity Grade (N)
BP43629V,ADAE,AEWITHFL,AE Leading to Drug Withdrawal Flag
BP43629V,ADAE,AGE,Age
BP43629V,ADAE,AGEU,Age Units
BP43629V,ADAE,ALLSUBFL,All Subjects Population Flag
BP43629V,ADAE,AOCCIFL,1st Max Sev./Int. Occurrence Flag
BP43629V,ADAE,AOCCPIFL,1st Max Sev./Int. Occur Within PT Flag
BP43629V,ADAE,AOCCSIFL,1st Max Sev./Int. Occur Within SOC Flag
BP43629V,ADAE,AOCXIFL,1st Max Sev./Int. Occ per Treatment
BP43629V,ADAE,AOCXPIFL,1st Max Sev./Int. Occ in PT per Treatment
BP43629V,ADAE,AOCXSIFL,1st Max Sev./Int. Occ in SOC per Treatment
BP43629V,ADAE,AONSET,Time to Adverse Event Onset
BP43629V,ADAE,AONSETN,Time to Adverse Event Onset (N)
BP43629V,ADAE,AONSETU,Time to Adverse Event Onset Units
BP43629V,ADAE,AREL,Analysis Causality
BP43629V,ADAE,ASTDT,Analysis Start Date
BP43629V,ADAE,ASTDTF,Analysis Start Date Imputation Flag
BP43629V,ADAE,ASTDTM,Analysis Start Date/Time
BP43629V,ADAE,ASTDY,Analysis Start Relative Day
BP43629V,ADAE,ASTTM,Analysis Start Time
BP43629V,ADAE,ASTTMF,Analysis Start Time Imputation Flag
BP43629V,ADAE,ATOXGR,Analysis Toxicity Grade
BP43629V,ADAE,COMPLFL,Completers Population Flag
BP43629V,ADAE,COVAL,Comment
BP43629V,ADAE,DOMAIN,Domain Abbreviation
BP43629V,ADAE,EPOCH,Epoch
BP43629V,ADAE,ETHNIC,Ethnicity
BP43629V,ADAE,FUPFL,Follow-up Flag
BP43629V,ADAE,LDOSEDT,End Date of Last Dose
BP43629V,ADAE,LDOSEDTM,End Date/Time of Last Dose
BP43629V,ADAE,LDRELTM,Last Dose Relative Time
BP43629V,ADAE,LDRELTMU,Last Dose Relative Time Unit
BP43629V,ADAE,PKFL,Pharmacokinetic Population Flag
BP43629V,ADAE,PREFL,Pre-treatment Flag
BP43629V,ADAE,RACE,Race
BP43629V,ADAE,SAFFL,Safety Population Flag
BP43629V,ADAE,SEX,Sex
BP43629V,ADAE,SITEID,Study Site Identifier
BP43629V,ADAE,STUDYID,Study Identifier
BP43629V,ADAE,SUBJID,Subject Identifier for the Study
BP43629V,ADAE,TRTA,Actual Treatment
BP43629V,ADAE,TRTAN,Actual Treatment (N)
BP43629V,ADAE,TRTEDT,Date of Last Exposure to Treatment
BP43629V,ADAE,TRTEDTM,Datetime of Last Exposure to Treatment
BP43629V,ADAE,TRTEMFL,Treatment Emergent Analysis Flag
BP43629V,ADAE,TRTP,Planned Treatment
BP43629V,ADAE,TRTPN,Planned Treatment (N)
BP43629V,ADAE,TRTSDT,Date of First Exposure to Treatment
BP43629V,ADAE,TRTSDTM,Datetime of First Exposure to Treatment
BP43629V,ADAE,USUBJID,Unique Subject Identifier
BP43629V,ADCM,ADURCM,Duration of Concomitant Medication
BP43629V,ADCM,ADURN,Analysis Duration (N)
BP43629V,ADCM,ADURU,Analysis Duration Units
BP43629V,ADCM,AENDT,Analysis End Date
BP43629V,ADCM,AENDTF,Analysis End Date Imputation Flag
BP43629V,ADCM,AENDTM,Analysis End Date/Time
BP43629V,ADCM,AENDY,Analysis End Relative Day
BP43629V,ADCM,AENTM,Analysis End Time
BP43629V,ADCM,AENTMF,Analysis End Time Imputation Flag
BP43629V,ADCM,AGE,Age
BP43629V,ADCM,AGEU,Age Units
BP43629V,ADCM,ALLSUBFL,All Subjects Population Flag
BP43629V,ADCM,ASTDT,Analysis Start Date
BP43629V,ADCM,ASTDTF,Analysis Start Date Imputation Flag
BP43629V,ADCM,ASTDTM,Analysis Start Date/Time
BP43629V,ADCM,ASTDY,Analysis Start Relative Day
BP43629V,ADCM,ASTTM,Analysis Start Time
BP43629V,ADCM,ASTTMF,Analysis Start Time Imputation Flag
BP43629V,ADCM,ATIREL,Time Relative to Reference
BP43629V,ADCM,CMCAT,Category for Medication
BP43629V,ADCM,CMDECOD,Standardized Medication Name
BP43629V,ADCM,CMDOSE,Dose per Administration
BP43629V,ADCM,CMDOSFRQ,Dosing Frequency per Interval
BP43629V,ADCM,CMDOSU,Dose Units
BP43629V,ADCM,CMDRG,Synonym Medication Name
BP43629V,ADCM,CMDRGCD,Synonym Medication Name Code
BP43629V,ADCM,CMENDTC,End Date/Time of Medication
BP43629V,ADCM,CMENDY,Study Day of End of Medication
BP43629V,ADCM,CMENRTPT,End Relative to Reference Time Point
BP43629V,ADCM,CMENTPT,End Reference Time Point
BP43629V,ADCM,CMGRPID,Group ID
BP43629V,ADCM,CMINDC,Indication
BP43629V,ADCM,CMMODIFY,Modified Reported Name
BP43629V,ADCM,CMPNCD,Standardized Medication Name Code
BP43629V,ADCM,CMROUTE,Route of Administration
BP43629V,ADCM,CMSEQ,Sequence Number
BP43629V,ADCM,CMSPID,Sponsor-Defined Identifier
BP43629V,ADCM,CMSTDTC,Start Date/Time of Medication
BP43629V,ADCM,CMSTDY,Study Day of Start of Medication
BP43629V,ADCM,CMTRT,"Reported Name of Drug, Med, or Therapy"
BP43629V,ADCM,COMPLFL,Completers Population Flag
BP43629V,ADCM,DOMAIN,Domain Abbreviation
BP43629V,ADCM,EPOCH,Epoch
BP43629V,ADCM,ETHNIC,Ethnicity
BP43629V,ADCM,FUPFL,Follow-up Flag
BP43629V,ADCM,LDOSEDT,End Date of Last Dose
BP43629V,ADCM,LDOSEDTM,End Date/Time of Last Dose
BP43629V,ADCM,LDRELTM,Last Dose Relative Time
BP43629V,ADCM,LDRELTMU,Last Dose Relative Time Unit
BP43629V,ADCM,ONTRTFL,On Treatment Record Flag
BP43629V,ADCM,PKFL,Pharmacokinetic Population Flag
BP43629V,ADCM,PREFL,Pre-treatment Flag
BP43629V,ADCM,RACE,Race
BP43629V,ADCM,SAFFL,Safety Population Flag
BP43629V,ADCM,SEX,Sex
BP43629V,ADCM,SITEID,Study Site Identifier
BP43629V,ADCM,STUDYID,Study Identifier
BP43629V,ADCM,SUBJID,Subject Identifier for the Study
BP43629V,ADCM,TRTA,Actual Treatment
BP43629V,ADCM,TRTAN,Actual Treatment (N)
BP43629V,ADCM,TRTEDT,Date of Last Exposure to Treatment
BP43629V,ADCM,TRTEDTM,Datetime of Last Exposure to Treatment
BP43629V,ADCM,TRTP,Planned Treatment
BP43629V,ADCM,TRTPN,Planned Treatment (N)
BP43629V,ADCM,TRTSDT,Date of First Exposure to Treatment
BP43629V,ADCM,TRTSDTM,Datetime of First Exposure to Treatment
BP43629V,ADCM,USUBJID,Unique Subject Identifier
BP43629V,ADEG,ABLFL,Baseline Record Flag
BP43629V,ADEG,ADT,Analysis Date
BP43629V,ADEG,ADTF,Analysis Date Imputation Flag
BP43629V,ADEG,ADTM,Analysis Datetime
BP43629V,ADEG,ADY,Analysis Relative Day
BP43629V,ADEG,AGE,Age
BP43629V,ADEG,AGEU,Age Units
BP43629V,ADEG,ALLSUBFL,All Subjects Population Flag
BP43629V,ADEG,ANL01FL,Analysis Flag 01
BP43629V,ADEG,ANRHI,Analysis Normal Range Upper Limit
BP43629V,ADEG,ANRIND,Analysis Reference Range Indicator
BP43629V,ADEG,ANRLO,Analysis Normal Range Lower Limit
BP43629V,ADEG,ATM,Analysis Time
BP43629V,ADEG,ATMF,Analysis Time Imputation Flag
BP43629V,ADEG,ATPT,Analysis Timepoint
BP43629V,ADEG,ATPTN,Analysis Timepoint (N)
BP43629V,ADEG,AVAL,Analysis Value
BP43629V,ADEG,AVALC,Analysis Value (C)
BP43629V,ADEG,AVALU,Analysis Value Unit
BP43629V,ADEG,AVISIT,Analysis Visit
BP43629V,ADEG,AVISITN,Analysis Visit (N)
BP43629V,ADEG,BASE,Baseline Value
BP43629V,ADEG,BASEC,Baseline Value (C)
BP43629V,ADEG,CHG,Change from Baseline
BP43629V,ADEG,CHGC,Change from Baseline (C)
BP43629V,ADEG,COMPLFL,Completers Population Flag
BP43629V,ADEG,DOMAIN,Domain Abbreviation
BP43629V,ADEG,DTYPE,Derivation Type
BP43629V,ADEG,EGBLFL,Baseline Flag
BP43629V,ADEG,EGCAT,Category for ECG
BP43629V,ADEG,EGCLSIG,Clinically Significant
BP43629V,ADEG,EGDTC,Date/Time of ECG
BP43629V,ADEG,EGDY,Study Day of ECG
BP43629V,ADEG,EGMETHOD,Method of ECG Test
BP43629V,ADEG,EGORRES,Result or Finding in Original Units
BP43629V,ADEG,EGORRESU,Original Units
BP43629V,ADEG,EGREASND,Reason ECG Not Performed
BP43629V,ADEG,EGREFID,ECG Reference ID
BP43629V,ADEG,EGSEQ,Sequence Number
BP43629V,ADEG,EGSPID,Sponsor-Defined Identifier
BP43629V,ADEG,EGSTAT,Completion Status
BP43629V,ADEG,EGSTRESC,Character Result/Finding in Std Format
BP43629V,ADEG,EGSTRESN,Numeric Result/Finding in Standard Units
BP43629V,ADEG,EGSTRESU,Standard Units
BP43629V,ADEG,EGTEST,ECG Test or Examination Name
BP43629V,ADEG,EGTESTCD,ECG Test or Examination Short Name
BP43629V,ADEG,EGTPT,Planned Time Point Name
BP43629V,ADEG,EGTPTNUM,Planned Time Point Number
BP43629V,ADEG,EGTPTREF,Time Point Reference
BP43629V,ADEG,EPOCH,Epoch
BP43629V,ADEG,ETHNIC,Ethnicity
BP43629V,ADEG,ONTRTFL,On Treatment Record Flag
BP43629V,ADEG,PARAM,Parameter
BP43629V,ADEG,PARAMCD,Parameter Code
BP43629V,ADEG,PARAMN,Parameter (N)
BP43629V,ADEG,PKFL,Pharmacokinetic Population Flag
BP43629V,ADEG,RACE,Race
BP43629V,ADEG,SAFFL,Safety Population Flag
BP43629V,ADEG,SEX,Sex
BP43629V,ADEG,SITEID,Study Site Identifier
BP43629V,ADEG,STUDYID,Study Identifier
BP43629V,ADEG,SUBJID,Subject Identifier for the Study
BP43629V,ADEG,TRIPREA,Triplicate Reading
BP43629V,ADEG,TRIPREAN,Triplicate Reading (N)
BP43629V,ADEG,TRTA,Actual Treatment
BP43629V,ADEG,TRTAN,Actual Treatment (N)
BP43629V,ADEG,TRTEDT,Date of Last Exposure to Treatment
BP43629V,ADEG,TRTEDTM,Datetime of Last Exposure to Treatment
BP43629V,ADEG,TRTP,Planned Treatment
BP43629V,ADEG,TRTPN,Planned Treatment (N)
BP43629V,ADEG,TRTSDT,Date of First Exposure to Treatment
BP43629V,ADEG,TRTSDTM,Datetime of First Exposure to Treatment
BP43629V,ADEG,USUBJID,Unique Subject Identifier
BP43629V,ADEG,VISIT,Visit Name
BP43629V,ADEG,VISITNUM,Visit Number
BP43629V,ADLB,A1HI,Analysis Range 1 Upper Limit
BP43629V,ADLB,A1IND,Analysis Range 1 Indicator
BP43629V,ADLB,A1LO,Analysis Range 1 Lower Limit
BP43629V,ADLB,ABLFL,Baseline Record Flag
BP43629V,ADLB,ADT,Analysis Date
BP43629V,ADLB,ADTF,Analysis Date Imputation Flag
BP43629V,ADLB,ADTM,Analysis Datetime
BP43629V,ADLB,ADY,Analysis Relative Day
BP43629V,ADLB,AGE,Age
BP43629V,ADLB,AGEU,Age Units
BP43629V,ADLB,ALLSUBFL,All Subjects Population Flag
BP43629V,ADLB,ANL01FL,Analysis Flag 01
BP43629V,ADLB,ANL02FL,Analysis Flag 02
BP43629V,ADLB,ANRHI,Analysis Normal Range Upper Limit
BP43629V,ADLB,ANRIND,Analysis Reference Range Indicator
BP43629V,ADLB,ANRLO,Analysis Normal Range Lower Limit
BP43629V,ADLB,ARANGE,Analysis Reference Range
BP43629V,ADLB,ASPID,Analysis Sponsor Identifier
BP43629V,ADLB,ATM,Analysis Time
BP43629V,ADLB,ATMF,Analysis Time Imputation Flag
BP43629V,ADLB,ATPT,Analysis Timepoint
BP43629V,ADLB,ATPTN,Analysis Timepoint (N)
BP43629V,ADLB,AVAL,Analysis Value
BP43629V,ADLB,AVALC,Analysis Value (C)
BP43629V,ADLB,AVALU,Analysis Value Unit
BP43629V,ADLB,AVISIT,Analysis Visit
BP43629V,ADLB,AVISITN,Analysis Visit (N)
BP43629V,ADLB,BASE,Baseline Value
BP43629V,ADLB,BASEC,Baseline Value (C)
BP43629V,ADLB,CHG,Change from Baseline
BP43629V,ADLB,CHGC,Change from Baseline (C)
BP43629V,ADLB,COMPLFL,Completers Population Flag
BP43629V,ADLB,CRDFL,Clinically Relevant Decrease Flag
BP43629V,ADLB,CRIFL,Clinically Relevant Increase Flag
BP43629V,ADLB,DOMAIN,Domain Abbreviation
BP43629V,ADLB,EPOCH,Epoch
BP43629V,ADLB,ETHNIC,Ethnicity
BP43629V,ADLB,LBBLFL,Baseline Flag
BP43629V,ADLB,LBCAT,Category for Lab Test
BP43629V,ADLB,LBCLSIG,Clinically Significant
BP43629V,ADLB,LBDTC,Date/Time of Specimen Collection
BP43629V,ADLB,LBDY,Study Day of Specimen Collection
BP43629V,ADLB,LBELTM,Planned Elapsed Time from Time Point Ref
BP43629V,ADLB,LBFAST,Fasting Status
BP43629V,ADLB,LBLLOQ,Lower Limit of Quantitation
BP43629V,ADLB,LBMETHOD,Method of Test or Examination
BP43629V,ADLB,LBMNRIND,Marked Reference Range Indicator
BP43629V,ADLB,LBMSTNRH,Marked Reference Range Upper Limit
BP43629V,ADLB,LBMSTNRL,Marked Reference Range Lower Limit
BP43629V,ADLB,LBNAM,Vendor Name
BP43629V,ADLB,LBNRIND,Reference Range Indicator
BP43629V,ADLB,LBORNRHI,Reference Range Upper Limit in Orig Unit
BP43629V,ADLB,LBORNRLO,Reference Range Lower Limit in Orig Unit
BP43629V,ADLB,LBORRES,Result or Finding in Original Units
BP43629V,ADLB,LBORRESU,Original Units
BP43629V,ADLB,LBREASND,Reason Test Not Done
BP43629V,ADLB,LBREFID,Specimen ID
BP43629V,ADLB,LBSEQ,Sequence Number
BP43629V,ADLB,LBSNRIND,Sponsor Reference Range Indicator
BP43629V,ADLB,LBSPEC,Specimen Type
BP43629V,ADLB,LBSPID,Sponsor-Defined Identifier
BP43629V,ADLB,LBSSTNRH,Sponsor Reference Range Upper Limit
BP43629V,ADLB,LBSSTNRL,Sponsor Reference Range Lower Limit
BP43629V,ADLB,LBSSTRSC,Sponsor Character Result in Std Format
BP43629V,ADLB,LBSSTRSU,Sponsor Standard Units
BP43629V,ADLB,LBSTAT,Completion Status
BP43629V,ADLB,LBSTNRC,Reference Range for Char Rslt-Std Units
BP43629V,ADLB,LBSTNRHI,Reference Range Upper Limit-Std Units
BP43629V,ADLB,LBSTNRLO,Reference Range Lower Limit-Std Units
BP43629V,ADLB,LBSTRESC,Character Result/Finding in Std Format
BP43629V,ADLB,LBSTRESN,Numeric Result/Finding in Standard Units
BP43629V,ADLB,LBSTRESU,Standard Units
BP43629V,ADLB,LBTEST,Lab Test or Examination Name
BP43629V,ADLB,LBTESTCD,Lab Test or Examination Short Name
BP43629V,ADLB,LBTPT,Planned Time Point Name
BP43629V,ADLB,LBTPTNUM,Planned Time Point Number
BP43629V,ADLB,LBTPTREF,Time Point Reference
BP43629V,ADLB,MRANGE,Marked Reference Range
BP43629V,ADLB,ONTRTFL,On Treatment Record Flag
BP43629V,ADLB,PARAM,Parameter
BP43629V,ADLB,PARAMCD,Parameter Code
BP43629V,ADLB,PARAMN,Parameter (N)
BP43629V,ADLB,PARCAT1,Parameter Category 1
BP43629V,ADLB,PARCAT1N,Parameter Category 1 (N)
BP43629V,ADLB,PKFL,Pharmacokinetic Population Flag
BP43629V,ADLB,RACE,Race
BP43629V,ADLB,SAFFL,Safety Population Flag
BP43629V,ADLB,SEX,Sex
BP43629V,ADLB,SITEID,Study Site Identifier
BP43629V,ADLB,STUDYID,Study Identifier
BP43629V,ADLB,SUBJID,Subject Identifier for the Study
BP43629V,ADLB,TRTA,Actual Treatment
BP43629V,ADLB,TRTAN,Actual Treatment (N)
BP43629V,ADLB,TRTEDT,Date of Last Exposure to Treatment
BP43629V,ADLB,TRTEDTM,Datetime of Last Exposure to Treatment
BP43629V,ADLB,TRTP,Planned Treatment
BP43629V,ADLB,TRTPN,Planned Treatment (N)
BP43629V,ADLB,TRTSDT,Date of First Exposure to Treatment
BP43629V,ADLB,TRTSDTM,Datetime of First Exposure to Treatment
BP43629V,ADLB,UNSCHFL,Unscheduled Record Flag
BP43629V,ADLB,USUBJID,Unique Subject Identifier
BP43629V,ADLB,VISIT,Visit Name
BP43629V,ADLB,VISITNUM,Visit Number
BP43629V,ADPC,ADT,Analysis Date
BP43629V,ADPC,ADTF,Analysis Date Imputation Flag
BP43629V,ADPC,ADTM,Analysis Datetime
BP43629V,ADPC,ADY,Analysis Relative Day
BP43629V,ADPC,AGE,Age
BP43629V,ADPC,AGEU,Age Units
BP43629V,ADPC,ALLSUBFL,All Subjects Population Flag
BP43629V,ADPC,ANL01FL,Analysis Flag 01
BP43629V,ADPC,ATM,Analysis Time
BP43629V,ADPC,ATMF,Analysis Time Imputation Flag
BP43629V,ADPC,ATPT,Analysis Timepoint
BP43629V,ADPC,ATPTN,Analysis Timepoint (N)
BP43629V,ADPC,AVAL,Analysis Value
BP43629V,ADPC,AVALC,Analysis Value (C)
BP43629V,ADPC,AVALU,Analysis Value Unit
BP43629V,ADPC,AVISIT,Analysis Visit
BP43629V,ADPC,AVISITN,Analysis Visit (N)
BP43629V,ADPC,COMPLFL,Completers Population Flag
BP43629V,ADPC,COVAL,Comment
BP43629V,ADPC,DTYPE,Derivation Type
BP43629V,ADPC,ETHNIC,Ethnicity
BP43629V,ADPC,ONTRTFL,On Treatment Record Flag
BP43629V,ADPC,PACTIME,Actual Time Post Dose (h)
BP43629V,ADPC,PARAM,Parameter
BP43629V,ADPC,PARAMCD,Parameter Code
BP43629V,ADPC,PARAMN,Parameter (N)
BP43629V,ADPC,PARCAT1,Parameter Category 1
BP43629V,ADPC,PARCAT1N,Parameter Category 1 (N)
BP43629V,ADPC,PCCAT,Test Category
BP43629V,ADPC,PCCOM,Reason for Exclusion from PK analysis
BP43629V,ADPC,PCCOMS,Reason for Exclusion (Subject Level)
BP43629V,ADPC,PCDTC,Date/Time of Specimen Collection
BP43629V,ADPC,PCDY,Actual Study Day of Specimen Collection
BP43629V,ADPC,PCFLAG,Flag
BP43629V,ADPC,PCFLAGS,Flag (Subject Level)
BP43629V,ADPC,PCLISDIR,List Direction
BP43629V,ADPC,PCLISDIS,List Direction (Subject Level)
BP43629V,ADPC,PCLISTFL,List Flag
BP43629V,ADPC,PCLISTFS,List Flag (Subject Level)
BP43629V,ADPC,PCLLOQ,Lower Limit of Quantitation
BP43629V,ADPC,PCNAM,Vendor Name
BP43629V,ADPC,PCORRES,Result or Finding in Original Units
BP43629V,ADPC,PCORRESU,Original Units
BP43629V,ADPC,PCREASND,Reason Test Not Done
BP43629V,ADPC,PCRFTDTC,Date/Time of Reference Point
BP43629V,ADPC,PCSCAT,Test Subcategory
BP43629V,ADPC,PCSEQ,Sequence Number
BP43629V,ADPC,PCSPEC,Specimen Material Type
BP43629V,ADPC,PCSPID,Sponsor-Defined Identifier
BP43629V,ADPC,PCSTAT,Completion Status
BP43629V,ADPC,PCSTATFL,Exclude from Stats. Flag
BP43629V,ADPC,PCSTATFS,Exclude from Stats Flag (Subject Level)
BP43629V,ADPC,PCSTRESC,Character Result/Finding in Std Format
BP43629V,ADPC,PCSTRESN,Numeric Result/Finding in Standard Units
BP43629V,ADPC,PCSTRESU,Standard Units
BP43629V,ADPC,PCTEST,Pharmacokinetic Test Name
BP43629V,ADPC,PCTESTCD,Pharmacokinetic Test Short Name
BP43629V,ADPC,PCTPT,Planned Time Point Name
BP43629V,ADPC,PCTPTNUM,Planned Time Point Number
BP43629V,ADPC,PCTPTREF,Time Point Reference
BP43629V,ADPC,PKDAY,PK Profile Day
BP43629V,ADPC,PKFL,Pharmacokinetic Population Flag
BP43629V,ADPC,PKNTIME,Nominal Time Post Dose (h)
BP43629V,ADPC,RACE,Race
BP43629V,ADPC,SAFFL,Safety Population Flag
BP43629V,ADPC,SEX,Sex
BP43629V,ADPC,SITEID,Study Site Identifier
BP43629V,ADPC,STUDYID,Study Identifier
BP43629V,ADPC,SUBJID,Subject Identifier for the Study
BP43629V,ADPC,TBLQFL,Trailing BLQ Flag
BP43629V,ADPC,TRTA,Actual Treatment
BP43629V,ADPC,TRTAN,Actual Treatment (N)
BP43629V,ADPC,TRTEDT,Date of Last Exposure to Treatment
BP43629V,ADPC,TRTEDTM,Datetime of Last Exposure to Treatment
BP43629V,ADPC,TRTP,Planned Treatment
BP43629V,ADPC,TRTPN,Planned Treatment (N)
BP43629V,ADPC,TRTSDT,Date of First Exposure to Treatment
BP43629V,ADPC,TRTSDTM,Datetime of First Exposure to Treatment
BP43629V,ADPC,USUBJID,Unique Subject Identifier
BP43629V,ADPC,VISIT,Visit Name
BP43629V,ADPC,VISITNUM,Visit Number
BP43629V,ADPP,AGE,Age
BP43629V,ADPP,AGEU,Age Units
BP43629V,ADPP,ALLSUBFL,All Subjects Population Flag
BP43629V,ADPP,AVAL,Analysis Value
BP43629V,ADPP,AVALC,Analysis Value (C)
BP43629V,ADPP,AVALU,Analysis Value Unit
BP43629V,ADPP,AVISIT,Analysis Visit
BP43629V,ADPP,AVISITN,Analysis Visit (N)
BP43629V,ADPP,COMPLFL,Completers Population Flag
BP43629V,ADPP,DTYPE,Derivation Type
BP43629V,ADPP,ETHNIC,Ethnicity
BP43629V,ADPP,PARAM,Parameter
BP43629V,ADPP,PARAMCD,Parameter Code
BP43629V,ADPP,PARAMN,Parameter (N)
BP43629V,ADPP,PARCAT1,Parameter Category 1
BP43629V,ADPP,PARCAT1N,Parameter Category 1 (N)
BP43629V,ADPP,PKFL,Pharmacokinetic Population Flag
BP43629V,ADPP,PPCAT,Parameter Category
BP43629V,ADPP,PPCOM,Reason for Exclusion from PK analysis
BP43629V,ADPP,PPFLAG,Flag
BP43629V,ADPP,PPLISDIR,List Direction
BP43629V,ADPP,PPLISTFL,List Flag
BP43629V,ADPP,PPORRES,Result or Finding in Original Units
BP43629V,ADPP,PPORRESU,Original Units
BP43629V,ADPP,PPREASND,Reason Parameter Not Calculated
BP43629V,ADPP,PPRFTDTC,Date/Time of Reference Point
BP43629V,ADPP,PPSEQ,Sequence Number
BP43629V,ADPP,PPSPEC,Specimen Material Type
BP43629V,ADPP,PPSPID,Sponsor-Defined Identifier
BP43629V,ADPP,PPSTAT,Completion Status
BP43629V,ADPP,PPSTATFL,Exclude from Stats. Flag
BP43629V,ADPP,PPSTRESC,Character Result/Finding in Std Format
BP43629V,ADPP,PPSTRESN,Numeric Result/Finding in Standard Units
BP43629V,ADPP,PPSTRESU,Standard Units
BP43629V,ADPP,PPTEST,Parameter Name
BP43629V,ADPP,PPTESTCD,Parameter Short Name
BP43629V,ADPP,PPTPTREF,Time Point Reference
BP43629V,ADPP,RACE,Race
BP43629V,ADPP,SAFFL,Safety Population Flag
BP43629V,ADPP,SEX,Sex
BP43629V,ADPP,SITEID,Study Site Identifier
BP43629V,ADPP,STUDYID,Study Identifier
BP43629V,ADPP,SUBJID,Subject Identifier for the Study
BP43629V,ADPP,TRTA,Actual Treatment
BP43629V,ADPP,TRTAN,Actual Treatment (N)
BP43629V,ADPP,TRTEDT,Date of Last Exposure to Treatment
BP43629V,ADPP,TRTEDTM,Datetime of Last Exposure to Treatment
BP43629V,ADPP,TRTP,Planned Treatment
BP43629V,ADPP,TRTPN,Planned Treatment (N)
BP43629V,ADPP,TRTSDT,Date of First Exposure to Treatment
BP43629V,ADPP,TRTSDTM,Datetime of First Exposure to Treatment
BP43629V,ADPP,USUBJID,Unique Subject Identifier
BP43629V,ADSL,ACTARM,Description of Actual Arm
BP43629V,ADSL,ACTARMCD,Actual Arm Code
BP43629V,ADSL,AEWITHFL,AE Leading to Drug Withdrawal Flag
BP43629V,ADSL,AGE,Age
BP43629V,ADSL,AGEU,Age Units
BP43629V,ADSL,ALLSUBFL,All Subjects Population Flag
BP43629V,ADSL,AP01EDT,Period 01 End Date
BP43629V,ADSL,AP01EDTF,Period 01 End Date Imput. Flag
BP43629V,ADSL,AP01EDTM,Period 01 End Datetime
BP43629V,ADSL,AP01ETMF,Period 01 End Time Imput. Flag
BP43629V,ADSL,AP01SDT,Period 01 Start Date
BP43629V,ADSL,AP01SDTF,Period 01 Start Date Imput. Flag
BP43629V,ADSL,AP01SDTM,Period 01 Start Datetime
BP43629V,ADSL,AP01STMF,Period 01 Start Time Imput. Flag
BP43629V,ADSL,ARM,Description of Planned Arm
BP43629V,ADSL,ARMCD,Planned Arm Code
BP43629V,ADSL,BRTHDTC,Date/Time of Birth
BP43629V,ADSL,CHILDPOT,Childbearing Potential
BP43629V,ADSL,COMPLFL,Completers Population Flag
BP43629V,ADSL,COUNTRY,Country
BP43629V,ADSL,DCSREAS,Reason for Discontinuation from Study
BP43629V,ADSL,DCSREASP,Reason Spec for Discont from Study
BP43629V,ADSL,DMDTC,Date/Time of Collection
BP43629V,ADSL,DMDY,Study Day of Collection
BP43629V,ADSL,EOSDT,End of Study Date
BP43629V,ADSL,EOSDY,End of Study Relative Day
BP43629V,ADSL,EOSSTT,End of Study Status
BP43629V,ADSL,ETHNIC,Ethnicity
BP43629V,ADSL,ETHNICN,Ethnicity (N)
BP43629V,ADSL,INVNAM,Investigator Name
BP43629V,ADSL,MENOSTAT,Menopause Status
BP43629V,ADSL,PKFL,Pharmacokinetic Population Flag
BP43629V,ADSL,RACE,Race
BP43629V,ADSL,RACE1,Race 1
BP43629V,ADSL,RACE2,Race 2
BP43629V,ADSL,RACEN,Race (N)
BP43629V,ADSL,RACEOTH,"Race, Other"
BP43629V,ADSL,RFENDTC,Subject Reference End Date/Time
BP43629V,ADSL,RFICDT,Date of Informed Consent
BP43629V,ADSL,RFICDTC,Date/Time of Informed Consent
BP43629V,ADSL,RFPENDTC,Date/Time of End of Participation
BP43629V,ADSL,RFSTDTC,Subject Reference Start Date/Time
BP43629V,ADSL,RFXENDTC,Date/Time of Last Study Treatment
BP43629V,ADSL,RFXSTDTC,Date/Time of First Study Treatment
BP43629V,ADSL,SAFFL,Safety Population Flag
BP43629V,ADSL,SCRNID1,Screening Number 1
BP43629V,ADSL,SEX,Sex
BP43629V,ADSL,SEXN,Sex (N)
BP43629V,ADSL,SITEID,Study Site Identifier
BP43629V,ADSL,STUDYID,Study Identifier
BP43629V,ADSL,SUBJID,Subject Identifier for the Study
BP43629V,ADSL,SUBJIDN,Subject Identifier for the Study (N)
BP43629V,ADSL,TR01EDT,Date of Last Exposure in Period 01
BP43629V,ADSL,TR01EDTM,Datetime of Last Exposure in Period 01
BP43629V,ADSL,TR01ETM,Time of Last Exposure in Period 01
BP43629V,ADSL,TR01SDT,Date of First Exposure in Period 01
BP43629V,ADSL,TR01SDTM,Datetime of First Exposure in Period 01
BP43629V,ADSL,TR01STM,Time of First Exposure in Period 01
BP43629V,ADSL,TRT01A,Actual Treatment for Period 01
BP43629V,ADSL,TRT01AN,Actual Treatment for Period 01 (N)
BP43629V,ADSL,TRT01P,Planned Treatment for Period 01
BP43629V,ADSL,TRT01PN,Planned Treatment for Period 01 (N)
BP43629V,ADSL,TRTDURD,Total Treatment Duration (Days)
BP43629V,ADSL,TRTEDT,Date of Last Exposure to Treatment
BP43629V,ADSL,TRTEDTM,Datetime of Last Exposure to Treatment
BP43629V,ADSL,TRTETM,Time of Last Exposure to Treatment
BP43629V,ADSL,TRTSDT,Date of First Exposure to Treatment
BP43629V,ADSL,TRTSDTM,Datetime of First Exposure to Treatment
BP43629V,ADSL,TRTSTM,Time of First Exposure to Treatment
BP43629V,ADSL,USUBJID,Unique Subject Identifier
BP43629V,ADVS,ABLFL,Baseline Record Flag
BP43629V,ADVS,ADT,Analysis Date
BP43629V,ADVS,ADTF,Analysis Date Imputation Flag
BP43629V,ADVS,ADTM,Analysis Datetime
BP43629V,ADVS,ADY,Analysis Relative Day
BP43629V,ADVS,AGE,Age
BP43629V,ADVS,AGEU,Age Units
BP43629V,ADVS,ALLSUBFL,All Subjects Population Flag
BP43629V,ADVS,ANL01FL,Analysis Flag 01
BP43629V,ADVS,ANRHI,Analysis Normal Range Upper Limit
BP43629V,ADVS,ANRIND,Analysis Reference Range Indicator
BP43629V,ADVS,ANRLO,Analysis Normal Range Lower Limit
BP43629V,ADVS,ATM,Analysis Time
BP43629V,ADVS,ATMF,Analysis Time Imputation Flag
BP43629V,ADVS,ATPT,Analysis Timepoint
BP43629V,ADVS,ATPTN,Analysis Timepoint (N)
BP43629V,ADVS,AVAL,Analysis Value
BP43629V,ADVS,AVALC,Analysis Value (C)
BP43629V,ADVS,AVALU,Analysis Value Unit
BP43629V,ADVS,AVISIT,Analysis Visit
BP43629V,ADVS,AVISITN,Analysis Visit (N)
BP43629V,ADVS,BASE,Baseline Value
BP43629V,ADVS,BASEC,Baseline Value (C)
BP43629V,ADVS,CHG,Change from Baseline
BP43629V,ADVS,CHGC,Change from Baseline (C)
BP43629V,ADVS,COMPLFL,Completers Population Flag
BP43629V,ADVS,DOMAIN,Domain Abbreviation
BP43629V,ADVS,DTYPE,Derivation Type
BP43629V,ADVS,EPOCH,Epoch
BP43629V,ADVS,ETHNIC,Ethnicity
BP43629V,ADVS,ONTRTFL,On Treatment Record Flag
BP43629V,ADVS,PARAM,Parameter
BP43629V,ADVS,PARAMCD,Parameter Code
BP43629V,ADVS,PARAMN,Parameter (N)
BP43629V,ADVS,PKFL,Pharmacokinetic Population Flag
BP43629V,ADVS,RACE,Race
BP43629V,ADVS,SAFFL,Safety Population Flag
BP43629V,ADVS,SEX,Sex
BP43629V,ADVS,SITEID,Study Site Identifier
BP43629V,ADVS,STUDYID,Study Identifier
BP43629V,ADVS,SUBJID,Subject Identifier for the Study
BP43629V,ADVS,TRIPREA,Triplicate Reading
BP43629V,ADVS,TRIPREAN,Triplicate Reading (N)
BP43629V,ADVS,TRTA,Actual Treatment
BP43629V,ADVS,TRTAN,Actual Treatment (N)
BP43629V,ADVS,TRTEDT,Date of Last Exposure to Treatment
BP43629V,ADVS,TRTEDTM,Datetime of Last Exposure to Treatment
BP43629V,ADVS,TRTP,Planned Treatment
BP43629V,ADVS,TRTPN,Planned Treatment (N)
BP43629V,ADVS,TRTSDT,Date of First Exposure to Treatment
BP43629V,ADVS,TRTSDTM,Datetime of First Exposure to Treatment
BP43629V,ADVS,USUBJID,Unique Subject Identifier
BP43629V,ADVS,VISIT,Visit Name
BP43629V,ADVS,VISITNUM,Visit Number
BP43629V,ADVS,VSBLFL,Baseline Flag
BP43629V,ADVS,VSCAT,Category for Vital Signs
BP43629V,ADVS,VSDTC,Date/Time of Measurements
BP43629V,ADVS,VSDY,Study Day of Vital Signs
BP43629V,ADVS,VSGRPID,Group ID
BP43629V,ADVS,VSLOC,Location of Vital Signs Measurement
BP43629V,ADVS,VSORRES,Result or Finding in Original Units
BP43629V,ADVS,VSORRESU,Original Units
BP43629V,ADVS,VSPOS,Vital Signs Position of Subject
BP43629V,ADVS,VSREASND,Reason Not Performed
BP43629V,ADVS,VSSEQ,Sequence Number
BP43629V,ADVS,VSSPID,Sponsor-Defined Identifier
BP43629V,ADVS,VSSTAT,Completion Status
BP43629V,ADVS,VSSTRESC,Character Result/Finding in Std Format
BP43629V,ADVS,VSSTRESN,Numeric Result/Finding in Standard Units
BP43629V,ADVS,VSSTRESU,Standard Units
BP43629V,ADVS,VSTEST,Vital Signs Test Name
BP43629V,ADVS,VSTESTCD,Vital Signs Test Short Name
BP43629V,ADVS,VSTPT,Planned Time Point Name
BP43629V,ADVS,VSTPTNUM,Planned Time Point Number
BP43629V,ADVS,VSTPTREF,Time Point Reference
BP43792S,AE,AEACN,Action Taken with Study Treatment
BP43792S,AE,AEACNOT1,Other Action Taken 1
BP43792S,AE,AEACNOT2,Other Action Taken 2
BP43792S,AE,AEACNOTH,Other Action Taken
BP43792S,AE,AEASOD,Accidental Overdose?
BP43792S,AE,AEBDSYCD,Body System or Organ Class Code
BP43792S,AE,AEBODSYS,Body System or Organ Class
BP43792S,AE,AECAT,Category for Adverse Event
BP43792S,AE,AECONCST,Corticosteroid Medications Given for AE
BP43792S,AE,AECONTRT,Concomitant or Additional Trtmnt Given
BP43792S,AE,AEDECOD,Dictionary-Derived Term
BP43792S,AE,AEDLEYN,Dose Limiting Adverse Event?
BP43792S,AE,AEDLTYN,Dose Limiting Toxicity?
BP43792S,AE,AEDRGAB,Drug Abuse?
BP43792S,AE,AEDRGMU,Drug Misuse?
BP43792S,AE,AEDTHDTC,Death Date
BP43792S,AE,AEENDTC,End Date/Time of Adverse Event
BP43792S,AE,AEENDY,Study Day of End of Adverse Event
BP43792S,AE,AEENRTPT,End Relative to Reference Time Point
BP43792S,AE,AEENTPT,End Reference Time Point
BP43792S,AE,AEEXP,Expedited Adverse Event
BP43792S,AE,AEGRPID,Group ID
BP43792S,AE,AEHLGT,High Level Group Term
BP43792S,AE,AEHLGTCD,High Level Group Term Code
BP43792S,AE,AEHLT,High Level Term
BP43792S,AE,AEHLTCD,High Level Term Code
BP43792S,AE,AEISOD,Intentional Overdose?
BP43792S,AE,AEITOXGR,Initial Toxicity Grade
BP43792S,AE,AELLT,Lowest Level Term
BP43792S,AE,AELLTCD,Lowest Level Term Code
BP43792S,AE,AEMEDERR,Medication Error?
BP43792S,AE,AEMODIFY,Modified Reported Term
BP43792S,AE,AENYHACL,NYHA Class
BP43792S,AE,AEOCCRF,Event Occurrence Reference Time Point
BP43792S,AE,AEOUT,Outcome of Adverse Event
BP43792S,AE,AEPATERM,Pathogen Term
BP43792S,AE,AEPATH,Pathogen Type
BP43792S,AE,AEPATT,Pattern of Adverse Event
BP43792S,AE,AEPTCD,Preferred Term Code
BP43792S,AE,AEREFID,Reference ID
BP43792S,AE,AEREL,Causality
BP43792S,AE,AERELNS1,Relationship to Non-Study Treatment 1
BP43792S,AE,AERELNS2,Relationship to Non-Study Treatment 2
BP43792S,AE,AERELNS3,Relationship to Non-Study Treatment 3
BP43792S,AE,AERELNS4,Relationship to Non-Study Treatment 4
BP43792S,AE,AERELNS5,Relationship to Non-Study Treatment 5
BP43792S,AE,AERELNS6,Relationship to Non-Study Treatment 6
BP43792S,AE,AERELNST,Relationship to Non-Study Treatment
BP43792S,AE,AESCAT,Subcategory for Adverse Event
BP43792S,AE,AESCONG,Congenital Anomaly or Birth Defect
BP43792S,AE,AESDEVI,Device Intervention Required?
BP43792S,AE,AESDISAB,Persist or Signif Disability/Incapacity
BP43792S,AE,AESDTH,Results in Death
BP43792S,AE,AESEQ,Sequence Number
BP43792S,AE,AESER,Serious Event
BP43792S,AE,AESHOSP,Requires or Prolongs Hospitalization
BP43792S,AE,AESLIFE,Is Life Threatening
BP43792S,AE,AESMIE,Other Medically Important Serious Event
BP43792S,AE,AESOC,Primary System Organ Class
BP43792S,AE,AESOCCD,Primary System Organ Class Code
BP43792S,AE,AESPID,Sponsor-Defined Identifier
BP43792S,AE,AESTDTC,Start Date/Time of Adverse Event
BP43792S,AE,AESTDY,Study Day of Start of Adverse Event
BP43792S,AE,AESTRTPT,Start Relative to Reference Time Point
BP43792S,AE,AESTTPT,Start Reference Time Point
BP43792S,AE,AETERM,Reported Term for the Adverse Event
BP43792S,AE,AETOXGR,Standard Toxicity Grade
BP43792S,AE,AETRTEM,Treatment Emergent Flag
BP43792S,AE,DOMAIN,Domain Abbreviation
BP43792S,AE,EPOCH,Epoch
BP43792S,AE,STUDYID,Study Identifier
BP43792S,AE,USUBJID,Unique Subject Identifier
BP43792S,BE,BECAT,Category for Biospecimen Event
BP43792S,BE,BEDECOD,Dictionary-Derived Term
BP43792S,BE,BEDTC,Date/Time of Specimen Collection
BP43792S,BE,BEDY,Study Day of Visit/Collection/Exam
BP43792S,BE,BEENDTC,End Date/Time of Biospecimen Event
BP43792S,BE,BEENDY,Study Day of End of Biospecimen Event
BP43792S,BE,BEOCCUR,Occurrence
BP43792S,BE,BEPRESP,Pre-specified
BP43792S,BE,BESCAT,Subcategory for Biospecimen Event
BP43792S,BE,BESEQ,Sequence Number
BP43792S,BE,BESPID,Sponsor-Defined Identifier
BP43792S,BE,BESTDTC,Start Date/Time of Biospecimen Event
BP43792S,BE,BESTDY,Study Day of Start of Biospecimen Event
BP43792S,BE,BETERM,Reported Term for the Biospecimen Event
BP43792S,BE,BETPT,Planned Time Point Name
BP43792S,BE,BETPTNUM,Planned Time Point Number
BP43792S,BE,DOMAIN,Domain Abbreviation
BP43792S,BE,EPOCH,Epoch
BP43792S,BE,STUDYID,Study Identifier
BP43792S,BE,USUBJID,Unique Subject Identifier
BP43792S,BE,VISIT,Visit Name
BP43792S,BE,VISITDY,Planned Study Day of Visit
BP43792S,BE,VISITNUM,Visit Number
BP43792S,CE,CECAT,Category for Clinical Event
BP43792S,CE,CEDECOD,Dictionary-Derived Term
BP43792S,CE,CEENDTC,End Date/Time of Clinical Event
BP43792S,CE,CEENDY,Study Day of End of Observation
BP43792S,CE,CEGRPID,Group ID
BP43792S,CE,CEHLGT,High Level Group Term
BP43792S,CE,CEHLGTCD,High Level Group Term Code
BP43792S,CE,CEHLT,High Level Term
BP43792S,CE,CEHLTCD,High Level Term Code
BP43792S,CE,CEITOXGR,Initial Toxicity Grade
BP43792S,CE,CELLT,Lowest Level Term
BP43792S,CE,CELLTCD,Lowest Level Term Code
BP43792S,CE,CEPTCD,Preferred Term Code
BP43792S,CE,CESEQ,Sequence Number
BP43792S,CE,CESER,Serious Event
BP43792S,CE,CESOC,Primary System Organ Class
BP43792S,CE,CESOCCD,Primary System Organ Class Code
BP43792S,CE,CESPID,Sponsor-Defined Identifier
BP43792S,CE,CESTDTC,Start Date/Time of Clinical Event
BP43792S,CE,CESTDY,Study Day of Start of Observation
BP43792S,CE,CETERM,Reported Term for the Clinical Event
BP43792S,CE,CETOXGR,Toxicity Grade
BP43792S,CE,DOMAIN,Domain Abbreviation
BP43792S,CE,EPOCH,Epoch
BP43792S,CE,STUDYID,Study Identifier
BP43792S,CE,USUBJID,Unique Subject Identifier
BP43792S,CM,CMCAT,Category for Medication
BP43792S,CM,CMCLAS,Medication Class
BP43792S,CM,CMCLASCD,Medication Class Code
BP43792S,CM,CMDECOD,Standardized Medication Name
BP43792S,CM,CMDECOD1,Standardized Medication Name 1
BP43792S,CM,CMDECOD2,Standardized Medication Name 2
BP43792S,CM,CMDECOD3,Standardized Medication Name 3
BP43792S,CM,CMDECOD4,Standardized Medication Name 4
BP43792S,CM,CMDECOD5,Standardized Medication Name 5
BP43792S,CM,CMDECOD6,Standardized Medication Name 6
BP43792S,CM,CMDECOD7,Standardized Medication Name 7
BP43792S,CM,CMDOSE,Dose per Administration
BP43792S,CM,CMDOSFRM,Dose Form
BP43792S,CM,CMDOSFRQ,Dosing Frequency per Interval
BP43792S,CM,CMDOSRGM,Intended Dose Regimen
BP43792S,CM,CMDOSTOT,Total Daily Dose
BP43792S,CM,CMDOSTXT,Dose Description
BP43792S,CM,CMDOSTYP,Cytarabine Dose level
BP43792S,CM,CMDOSU,Dose Units
BP43792S,CM,CMDRG,Synonym Medication Name
BP43792S,CM,CMDRG1,Synonym Medication Name 1
BP43792S,CM,CMDRG2,Synonym Medication Name 2
BP43792S,CM,CMDRG3,Synonym Medication Name 3
BP43792S,CM,CMDRG4,Synonym Medication Name 4
BP43792S,CM,CMDRG5,Synonym Medication Name 5
BP43792S,CM,CMDRG6,Synonym Medication Name 6
BP43792S,CM,CMDRG7,Synonym Medication Name 7
BP43792S,CM,CMDRGCD,Synonym Medication Name Code
BP43792S,CM,CMDTC,Date/Time of Collection
BP43792S,CM,CMDUR,Duration of Medication
BP43792S,CM,CMDY,Study Day of Collection
BP43792S,CM,CMELTM,Planned Elapsed Time from Time Point Ref
BP43792S,CM,CMENDTC,End Date/Time of Medication
BP43792S,CM,CMENDY,Study Day of End of Medication
BP43792S,CM,CMENRF,End Relative to Reference Period
BP43792S,CM,CMENRTPT,End Relative to Reference Time Point
BP43792S,CM,CMENTPT,End Reference Time Point
BP43792S,CM,CMEVINTX,Evaluation Interval Text
BP43792S,CM,CMGRPID,Group ID
BP43792S,CM,CMINDC,Indication
BP43792S,CM,CMINTENT,Intent of Radiotherapy
BP43792S,CM,CMLAT,Laterality
BP43792S,CM,CMLOC,Location of Dose Administration
BP43792S,CM,CMLOCDET,Site Irradiated Description
BP43792S,CM,CMLOT,Lot Number
BP43792S,CM,CMMODIF1,Modified Reported Name 1
BP43792S,CM,CMMODIF2,Modified Reported Name 2
BP43792S,CM,CMMODIF3,Modified Reported Name 3
BP43792S,CM,CMMODIF4,Modified Reported Name 4
BP43792S,CM,CMMODIF5,Modified Reported Name 5
BP43792S,CM,CMMODIF6,Modified Reported Name 6
BP43792S,CM,CMMODIF7,Modified Reported Name 7
BP43792S,CM,CMMODIFY,Modified Reported Name
BP43792S,CM,CMNCYC,Number of Cycles
BP43792S,CM,CMOCCUR,CM Occurrence
BP43792S,CM,CMPNCD,Standardized Medication Name Code
BP43792S,CM,CMPRESP,CM Pre-Specified
BP43792S,CM,CMPROPH,Given for prophylaxis
BP43792S,CM,CMPSTRG,Pharmaceutical Strength
BP43792S,CM,CMREASND,Reason Medication Not Collected
BP43792S,CM,CMREFID,Reference ID
BP43792S,CM,CMRGMTP1,Regimen Type 1
BP43792S,CM,CMRGMTP2,Regimen Type 2
BP43792S,CM,CMRGMTP3,Regimen Type 3
BP43792S,CM,CMRGMTP4,Regimen Type 4
BP43792S,CM,CMRGMTP5,Regimen Type 5
BP43792S,CM,CMRGMTP6,Regimen Type 6
BP43792S,CM,CMRGMTP7,Regimen Type 7
BP43792S,CM,CMRGMTP8,Regimen Type 8
BP43792S,CM,CMROUTE,Route of Administration
BP43792S,CM,CMSCAT,Subcategory for Medication
BP43792S,CM,CMSEQ,Sequence Number
BP43792S,CM,CMSPID,Sponsor-Defined Identifier
BP43792S,CM,CMSTAT,Completion Status
BP43792S,CM,CMSTDTC,Start Date/Time of Medication
BP43792S,CM,CMSTDY,Study Day of Start of Medication
BP43792S,CM,CMSTRF,Start Relative to Reference Period
BP43792S,CM,CMSTRTPT,Start Relative to Reference Time Point
BP43792S,CM,CMSTTPT,Start Reference Time Point
BP43792S,CM,CMTHSETO,Therapy Setting Other
BP43792S,CM,CMTPT,Planned Time Point Name
BP43792S,CM,CMTPTNUM,Planned Time Point Number
BP43792S,CM,CMTPTREF,Time Point Reference
BP43792S,CM,CMTRT,"Reported Name of Drug, Med, or Therapy"
BP43792S,CM,DOMAIN,Domain Abbreviation
BP43792S,CM,EPOCH,Epoch
BP43792S,CM,SCRNID,Screening Number
BP43792S,CM,SPDEVID,Sponsor Device Identifier
BP43792S,CM,STUDYID,Study Identifier
BP43792S,CM,USUBJID,Unique Subject Identifier
BP43792S,CM,VISIT,Visit Name
BP43792S,CM,VISITDY,Planned Study Day of Visit
BP43792S,CM,VISITNUM,Visit Number
BP43792S,CO,CODTC,Date/Time of Comment
BP43792S,CO,CODY,Study Day of Visit/Collection/Exam
BP43792S,CO,COREF,Comment Reference
BP43792S,CO,COSEQ,Sequence Number
BP43792S,CO,COVAL,Comment
BP43792S,CO,DOMAIN,Domain Abbreviation
BP43792S,CO,IDVAR,Identifying Variable
BP43792S,CO,IDVARVAL,Identifying Variable Value
BP43792S,CO,RDOMAIN,Related Domain Abbreviation
BP43792S,CO,STUDYID,Study Identifier
BP43792S,CO,USUBJID,Unique Subject Identifier
BP43792S,DM,ACTARM,Description of Actual Arm
BP43792S,DM,ACTARMCD,Actual Arm Code
BP43792S,DM,AGE,Age
BP43792S,DM,AGEU,Age Units
BP43792S,DM,ARM,Description of Planned Arm
BP43792S,DM,ARMCD,Planned Arm Code
BP43792S,DM,BRTHDTC,Date/Time of Birth
BP43792S,DM,COUNTRY,Country
BP43792S,DM,CRACE1,Race as Collected 1
BP43792S,DM,CRACE10,Race as Collected 10
BP43792S,DM,CRACE2,Race as Collected 2
BP43792S,DM,CRACE3,Race as Collected 3
BP43792S,DM,CRACE4,Race as Collected 4
BP43792S,DM,CRACE5,Race as Collected 5
BP43792S,DM,CRACE6,Race as Collected 6
BP43792S,DM,CRACE7,Race as Collected 7
BP43792S,DM,CRACE8,Race as Collected 8
BP43792S,DM,CRACE9,Race as Collected 9
BP43792S,DM,DMDTC,Date/Time of Collection
BP43792S,DM,DMDY,Study Day of Collection
BP43792S,DM,DOMAIN,Domain Abbreviation
BP43792S,DM,DTHDTC,Date/Time of Death
BP43792S,DM,DTHFL,Subject Death Flag
BP43792S,DM,ETHNIC,Ethnicity
BP43792S,DM,ETHNIC1,Ethnicity 1
BP43792S,DM,ETHNIC2,Ethnicity 2
BP43792S,DM,ETHNIC3,Ethnicity 3
BP43792S,DM,ETHNIC4,Ethnicity 4
BP43792S,DM,ETHNIC5,Ethnicity 5
BP43792S,DM,INVID,Investigator Identifier
BP43792S,DM,INVNAM,Investigator Name
BP43792S,DM,RACE,Race
BP43792S,DM,RACE1,Race 1
BP43792S,DM,RACE2,Race 2
BP43792S,DM,RACE3,Race 3
BP43792S,DM,RACE4,Race 4
BP43792S,DM,RACE5,Race 5
BP43792S,DM,RACE6,Race 6
BP43792S,DM,RACESP1,Race Origin - Asian
BP43792S,DM,RACESP2,Race Origin - Native Hawaiian
BP43792S,DM,RFENDTC,Subject Reference End Date/Time
BP43792S,DM,RFICDTC,Date/Time of Informed Consent
BP43792S,DM,RFPENDTC,Date/Time of End of Participation
BP43792S,DM,RFSTDTC,Subject Reference Start Date/Time
BP43792S,DM,RFXENDTC,Date/Time of Last Study Treatment
BP43792S,DM,RFXSTDTC,Date/Time of First Study Treatment
BP43792S,DM,SEX,Sex
BP43792S,DM,SITEID,Study Site Identifier
BP43792S,DM,STUDYID,Study Identifier
BP43792S,DM,SUBJID,Subject Identifier for the Study
BP43792S,DM,USUBJID,Unique Subject Identifier
BP43792S,DS,DOMAIN,Domain Abbreviation
BP43792S,DS,DSCAT,Category for Disposition Event
BP43792S,DS,DSDECOD,Standardized Disposition Term
BP43792S,DS,DSDTC,Date/Time of Collection
BP43792S,DS,DSDY,Study Day of Visit/Collection/Exam
BP43792S,DS,DSGRPID,Group ID
BP43792S,DS,DSREFID,Reference ID
BP43792S,DS,DSSCAT,Subcategory for Disposition Event
BP43792S,DS,DSSEQ,Sequence Number
BP43792S,DS,DSSPID,Sponsor-Defined Identifier
BP43792S,DS,DSSTDTC,Start Date/Time of Disposition Event
BP43792S,DS,DSSTDY,Study Day of Start of Disposition Event
BP43792S,DS,DSTERM,Reported Term for the Disposition Event
BP43792S,DS,EPOCH,Epoch
BP43792S,DS,SCRNID,Screening Number
BP43792S,DS,STUDYID,Study Identifier
BP43792S,DS,USUBJID,Unique Subject Identifier
BP43792S,DV,DOMAIN,Domain Abbreviation
BP43792S,DV,DVCAT,Category for Protocol Deviation
BP43792S,DV,DVDECOD,Protocol Deviation Coded Term
BP43792S,DV,DVEDREAS,Emergency Disruption Related Reason
BP43792S,DV,DVEDRELI,Emergency Disruption Related Indicator
BP43792S,DV,DVEDRETP,Emergency Disruption Related Type
BP43792S,DV,DVENDTC,End Date/Time of Deviation
BP43792S,DV,DVENDY,Study Day of End of Deviation
BP43792S,DV,DVEPRELI,Epi/Pandemic Related Indicator
BP43792S,DV,DVEVAL,Evaluator
BP43792S,DV,DVNAM,Vendor Name
BP43792S,DV,DVREAS,Reason for Deviation
BP43792S,DV,DVREFID,Reference ID
BP43792S,DV,DVSCAT,Subcategory for Protocol Deviation
BP43792S,DV,DVSEQ,Sequence Number
BP43792S,DV,DVSPID,Sponsor-Defined Identifier
BP43792S,DV,DVSTDTC,Start Date/Time of Deviation
BP43792S,DV,DVSTDY,Study Day of Start of Deviation
BP43792S,DV,DVTERM,Protocol Deviation Term
BP43792S,DV,EPOCH,Epoch
BP43792S,DV,STUDYID,Study Identifier
BP43792S,DV,USUBJID,Unique Subject Identifier
BP43792S,EC,DOMAIN,Domain Abbreviation
BP43792S,EC,ECADJ,Reason for Dose Adjustment
BP43792S,EC,ECBATCH,Batch Number
BP43792S,EC,ECDOSE,Dose
BP43792S,EC,ECDOSFRM,Dose Form
BP43792S,EC,ECDOSFRQ,Dosing Frequency per Interval
BP43792S,EC,ECDOSU,Dose Units
BP43792S,EC,ECENDTC,End Date/Time of Treatment
BP43792S,EC,ECENDY,Study Day of End of Treatment
BP43792S,EC,ECINADJ,Reason for Infusion/Injection Modify
BP43792S,EC,ECLAT,Laterality
BP43792S,EC,ECLNKGRP,Link Group ID
BP43792S,EC,ECLNKID,Link ID
BP43792S,EC,ECLOC,Location of Dose Administration
BP43792S,EC,ECMOOD,Mood
BP43792S,EC,ECOCCUR,Occurrence
BP43792S,EC,ECPRESP,Pre-Specified
BP43792S,EC,ECPSTRG,Pharmaceutical Strength
BP43792S,EC,ECPSTRGU,Pharmaceutical Strength Units
BP43792S,EC,ECREASOC,Reason for Study Drug Not Administered
BP43792S,EC,ECROUTE,Route of Administration
BP43792S,EC,ECSEQ,Sequence Number
BP43792S,EC,ECSPID,Sponsor-Defined Identifier
BP43792S,EC,ECSTDTC,Start Date/Time of Treatment
BP43792S,EC,ECSTDY,Study Day of Start of Treatment
BP43792S,EC,ECTRT,Name of Treatment
BP43792S,EC,EPOCH,Epoch
BP43792S,EC,STUDYID,Study Identifier
BP43792S,EC,USUBJID,Unique Subject Identifier
BP43792S,EC,VISIT,Visit Name
BP43792S,EC,VISITDY,Planned Study Day of Visit
BP43792S,EC,VISITNUM,Visit Number
BP43792S,EG,DOMAIN,Domain Abbreviation
BP43792S,EG,EGBLFL,Baseline Flag
BP43792S,EG,EGCAT,Category for ECG
BP43792S,EG,EGCLSIG,Clinically Significant
BP43792S,EG,EGDRVFL,Derived Flag
BP43792S,EG,EGDTC,Date/Time of ECG
BP43792S,EG,EGDY,Study Day of ECG
BP43792S,EG,EGELTM,Planned Elapsed Time from Time Point Ref
BP43792S,EG,EGENDTC,End Date/Time of Observation
BP43792S,EG,EGENDY,Study Day of End of Observation
BP43792S,EG,EGEVAL,Evaluator
BP43792S,EG,EGGRPID,Group ID
BP43792S,EG,EGLEAD,Lead Location Used for Measurement
BP43792S,EG,EGMETHOD,Method of ECG Test
BP43792S,EG,EGNAM,Vendor Name
BP43792S,EG,EGORRES,Result or Finding in Original Units
BP43792S,EG,EGORRESU,Original Units
BP43792S,EG,EGPOS,ECG Position of Subject
BP43792S,EG,EGREASND,Reason ECG Not Performed
BP43792S,EG,EGREFID,ECG Reference ID
BP43792S,EG,EGRESTYN,ECG Resting Status of Subject
BP43792S,EG,EGRFTDTC,Date/Time of Reference Time Point
BP43792S,EG,EGSCAT,Subcategory for ECG
BP43792S,EG,EGSEQ,Sequence Number
BP43792S,EG,EGSMPLID,Alternate Sample Identifier
BP43792S,EG,EGSPID,Sponsor-Defined Identifier
BP43792S,EG,EGSTAT,Completion Status
BP43792S,EG,EGSTRESC,Character Result/Finding in Std Format
BP43792S,EG,EGSTRESN,Numeric Result/Finding in Standard Units
BP43792S,EG,EGSTRESU,Standard Units
BP43792S,EG,EGTEST,ECG Test or Examination Name
BP43792S,EG,EGTESTCD,ECG Test or Examination Short Name
BP43792S,EG,EGTPT,Planned Time Point Name
BP43792S,EG,EGTPTNUM,Planned Time Point Number
BP43792S,EG,EGTPTREF,Time Point Reference
BP43792S,EG,EGXFN,ECG External File Path
BP43792S,EG,EPOCH,Epoch
BP43792S,EG,STUDYID,Study Identifier
BP43792S,EG,USUBJID,Unique Subject Identifier
BP43792S,EG,VISIT,Visit Name
BP43792S,EG,VISITDY,Planned Study Day of Visit
BP43792S,EG,VISITNUM,Visit Number
BP43792S,EX,DOMAIN,Domain Abbreviation
BP43792S,EX,EPOCH,Epoch
BP43792S,EX,EXADJ,Reason for Dose Adjustment
BP43792S,EX,EXDOSE,Dose
BP43792S,EX,EXDOSFRM,Dose Form
BP43792S,EX,EXDOSFRQ,Dosing Frequency per Interval
BP43792S,EX,EXDOSU,Dose Units
BP43792S,EX,EXENDTC,End Date/Time of Treatment
BP43792S,EX,EXENDY,Study Day of End of Treatment
BP43792S,EX,EXLAT,Laterality
BP43792S,EX,EXLNKGRP,Link Group ID
BP43792S,EX,EXLNKID,Link ID
BP43792S,EX,EXLOC,Location of Dose Administration
BP43792S,EX,EXROUTE,Route of Administration
BP43792S,EX,EXSEQ,Sequence Number
BP43792S,EX,EXSPID,Sponsor-Defined Identifier
BP43792S,EX,EXSTDTC,Start Date/Time of Treatment
BP43792S,EX,EXSTDY,Study Day of Start of Treatment
BP43792S,EX,EXTRT,Name of Treatment
BP43792S,EX,STUDYID,Study Identifier
BP43792S,EX,USUBJID,Unique Subject Identifier
BP43792S,EX,VISIT,Visit Name
BP43792S,EX,VISITDY,Planned Study Day of Visit
BP43792S,EX,VISITNUM,Visit Number
BP43792S,FA,DOMAIN,Domain Abbreviation
BP43792S,FA,EPOCH,Epoch
BP43792S,FA,FABLFL,Baseline Flag
BP43792S,FA,FACAT,Category for Findings About
BP43792S,FA,FADTC,Date/Time of Collection
BP43792S,FA,FADY,Study Day of Collection
BP43792S,FA,FAECADJ,Reason for Dose Modification
BP43792S,FA,FAENDTC,End Date/Time of Observation
BP43792S,FA,FAENDY,Study Day of End of Observation
BP43792S,FA,FAGRPID,Group ID
BP43792S,FA,FAOBJ,Object of the Observation
BP43792S,FA,FAORRES,Result or Finding in Original Units
BP43792S,FA,FAORRESU,Original Units
BP43792S,FA,FAREFID,Reference ID
BP43792S,FA,FASCAT,Subcategory for Findings About
BP43792S,FA,FASEQ,Sequence Number
BP43792S,FA,FASPID,Sponsor-Defined Identifier
BP43792S,FA,FASTDTC,Start Date/Time of Observation
BP43792S,FA,FASTDY,Study Day of Start of Observation
BP43792S,FA,FASTRESC,Character Result/Finding in Std Format
BP43792S,FA,FASTRESN,Numeric Result/Finding in Standard Units
BP43792S,FA,FASTRESU,Standard Units
BP43792S,FA,FATEST,Findings About Test Name
BP43792S,FA,FATESTCD,Findings About Test Short Name
BP43792S,FA,STUDYID,Study Identifier
BP43792S,FA,USUBJID,Unique Subject Identifier
BP43792S,FA,VISIT,Visit Name
BP43792S,FA,VISITDY,Planned Study Day of Visit
BP43792S,FA,VISITNUM,Visit Number
BP43792S,HO,DOMAIN,Domain Abbreviation
BP43792S,HO,EPOCH,Epoch
BP43792S,HO,HOCAT,Category for Healthcare Encounter
BP43792S,HO,HODECOD,Dictionary-Derived Term
BP43792S,HO,HODISOUT,Reason for Discharge
BP43792S,HO,HODTC,Date/Time of Event Collection
BP43792S,HO,HODUR,Duration of Healthcare Encounter
BP43792S,HO,HODY,Study Day of Event Collection
BP43792S,HO,HOENDTC,End Date/Time of Healthcare Encounter
BP43792S,HO,HOENDY,Study Day of End of Healthcare Encounter
BP43792S,HO,HOENRTPT,End Relative to Reference Time Point
BP43792S,HO,HOENTPT,End Reference Time Point
BP43792S,HO,HOGRPID,Group ID
BP43792S,HO,HOINDC,Indication
BP43792S,HO,HOOCCUR,Healthcare Encounter Occurrence
BP43792S,HO,HOPRESP,Pre-Specified Healthcare Encounter
BP43792S,HO,HOREASND,Reason Healthcare Encounter Not Done
BP43792S,HO,HOREFID,Reference ID
BP43792S,HO,HOSCAT,Subcategory for Healthcare Encounter
BP43792S,HO,HOSEQ,Sequence Number
BP43792S,HO,HOSPID,Sponsor-Defined Identifier
BP43792S,HO,HOSTAT,Completion Status
BP43792S,HO,HOSTDTC,Start Date/Time of Healthcare Encounter
BP43792S,HO,HOSTDY,Study Day of Start of Encounter
BP43792S,HO,HOSTRTPT,Start Relative to Reference Time Point
BP43792S,HO,HOSTTPT,Start Reference Time Point
BP43792S,HO,HOTERM,Healthcare Encounter Term
BP43792S,HO,STUDYID,Study Identifier
BP43792S,HO,USUBJID,Unique Subject Identifier
BP43792S,LB,DOMAIN,Domain Abbreviation
BP43792S,LB,EPOCH,Epoch
BP43792S,LB,LBBLFL,Baseline Flag
BP43792S,LB,LBCAT,Category for Lab Test
BP43792S,LB,LBCVNRHI,Reference Range Upper Limit-US CV Units
BP43792S,LB,LBCVNRLO,Reference Range Lower Limit-US CV Units
BP43792S,LB,LBCVRESC,Character Result/Finding in US CV Format
BP43792S,LB,LBCVRESN,Numeric Result/Finding in US CV Format
BP43792S,LB,LBCVRESU,US Conventional Units
BP43792S,LB,LBDTC,Date/Time of Specimen Collection
BP43792S,LB,LBDY,Study Day of Specimen Collection
BP43792S,LB,LBELTM,Planned Elapsed Time from Time Point Ref
BP43792S,LB,LBFAST,Fasting Status
BP43792S,LB,LBMETHOD,Method of Test or Examination
BP43792S,LB,LBNAM,Vendor Name
BP43792S,LB,LBNRIND,Reference Range Indicator
BP43792S,LB,LBORNRHI,Reference Range Upper Limit in Orig Unit
BP43792S,LB,LBORNRLO,Reference Range Lower Limit in Orig Unit
BP43792S,LB,LBORRES,Result or Finding in Original Units
BP43792S,LB,LBORRESU,Original Units
BP43792S,LB,LBREASND,Reason Test Not Done
BP43792S,LB,LBRFTDTC,Date/Time of Reference Time Point
BP43792S,LB,LBSEQ,Sequence Number
BP43792S,LB,LBSPEC,Specimen Type
BP43792S,LB,LBSPID,Sponsor-Defined Identifier
BP43792S,LB,LBSTAT,Completion Status
BP43792S,LB,LBSTNRHI,Reference Range Upper Limit-Std Units
BP43792S,LB,LBSTNRLO,Reference Range Lower Limit-Std Units
BP43792S,LB,LBSTRESC,Character Result/Finding in Std Format
BP43792S,LB,LBSTRESN,Numeric Result/Finding in Standard Units
BP43792S,LB,LBSTRESU,Standard Units
BP43792S,LB,LBTEST,Lab Test or Examination Name
BP43792S,LB,LBTESTCD,Lab Test or Examination Short Name
BP43792S,LB,LBTPT,Planned Time Point Name
BP43792S,LB,LBTPTNUM,Planned Time Point Number
BP43792S,LB,LBTPTREF,Time Point Reference
BP43792S,LB,STUDYID,Study Identifier
BP43792S,LB,USUBJID,Unique Subject Identifier
BP43792S,LB,VISIT,Visit Name
BP43792S,LB,VISITDY,Planned Study Day of Visit
BP43792S,LB,VISITNUM,Visit Number
BP43792S,MH,DOMAIN,Domain Abbreviation
BP43792S,MH,EPOCH,Epoch
BP43792S,MH,MHBDSYCD,Body System or Organ Class Code
BP43792S,MH,MHBODSYS,Body System or Organ Class
BP43792S,MH,MHCAT,Category for Medical History
BP43792S,MH,MHDECOD,Dictionary-Derived Term
BP43792S,MH,MHDIR,Directionality
BP43792S,MH,MHDISTAT,Status of Disease
BP43792S,MH,MHDTC,Date/Time of History Collection
BP43792S,MH,MHDY,Study Day of History Collection
BP43792S,MH,MHENDTC,End Date/Time of Medical History Event
BP43792S,MH,MHENDY,Study Day of End of Observation
BP43792S,MH,MHENRF,End Relative to Reference Period
BP43792S,MH,MHENRTPT,End Relative to Reference Time Point
BP43792S,MH,MHENTPT,End Reference Time Point
BP43792S,MH,MHEVDTYP,Medical History Event Date Type
BP43792S,MH,MHGRPID,Group ID
BP43792S,MH,MHHLGT,High Level Group Term
BP43792S,MH,MHHLGTCD,High Level Group Term Code
BP43792S,MH,MHHLT,High Level Term
BP43792S,MH,MHHLTCD,High Level Term Code
BP43792S,MH,MHLAT,Laterality
BP43792S,MH,MHLLT,Lowest Level Term
BP43792S,MH,MHLLTCD,Lowest Level Term Code
BP43792S,MH,MHLOC,Location of Event
BP43792S,MH,MHLOC1,Location of Event 1
BP43792S,MH,MHLOC10,Location of Event 10
BP43792S,MH,MHLOC11,Location of Event 11
BP43792S,MH,MHLOC2,Location of Event 2
BP43792S,MH,MHLOC3,Location of Event 3
BP43792S,MH,MHLOC4,Location of Event 4
BP43792S,MH,MHLOC5,Location of Event 5
BP43792S,MH,MHLOC6,Location of Event 6
BP43792S,MH,MHLOC7,Location of Event 7
BP43792S,MH,MHLOC8,Location of Event 8
BP43792S,MH,MHLOC9,Location of Event 9
BP43792S,MH,MHMODIFY,Modified Reported Term
BP43792S,MH,MHOCCUR,Medical History Occurrence
BP43792S,MH,MHOSDTC,Onset of Symptoms Date
BP43792S,MH,MHPRESP,Medical History Event Pre-Specified
BP43792S,MH,MHPTCD,Preferred Term Code
BP43792S,MH,MHREASND,Reason Medical History Not Collected
BP43792S,MH,MHREFID,Reference ID
BP43792S,MH,MHSCAT,Subcategory for Medical History
BP43792S,MH,MHSEQ,Sequence Number
BP43792S,MH,MHSOC,Primary System Organ Class
BP43792S,MH,MHSOCCD,Primary System Organ Class Code
BP43792S,MH,MHSPID,Sponsor-Defined Identifier
BP43792S,MH,MHSTAT,Completion Status
BP43792S,MH,MHSTDTC,Start Date/Time of Medical History Event
BP43792S,MH,MHSTDY,Study Day of Start of Observation
BP43792S,MH,MHSTRTPT,Start Relative to Reference Time Point
BP43792S,MH,MHSTTPT,Start Reference Time Point
BP43792S,MH,MHTERM,Reported Term for the Medical History
BP43792S,MH,SCRNID,Screening Number
BP43792S,MH,STUDYID,Study Identifier
BP43792S,MH,USUBJID,Unique Subject Identifier
BP43792S,MH,VISIT,Visit Name
BP43792S,MH,VISITDY,Planned Study Day of Visit
BP43792S,MH,VISITNUM,Visit Number
BP43792S,ML,DOMAIN,Domain Abbreviation
BP43792S,ML,EPOCH,Epoch
BP43792S,ML,MLCAT,Category for Meal
BP43792S,ML,MLCMPYN,Did Subject complete the meal?
BP43792S,ML,MLDTC,Date/Time of Collection
BP43792S,ML,MLDUR,Duration of Meal
BP43792S,ML,MLDY,Study Day of Visit/Collection/Exam
BP43792S,ML,MLENDTC,End Date/Time of Meal
BP43792S,ML,MLENDY,Study Day of End of Meal
BP43792S,ML,MLGRPID,Group ID
BP43792S,ML,MLRFTDTC,Date/Time of Reference Time Point
BP43792S,ML,MLSEQ,Sequence Number
BP43792S,ML,MLSPID,Sponsor-Defined Identifier
BP43792S,ML,MLSTDTC,Start Date/Time of Meal
BP43792S,ML,MLSTDY,Study Day of Start of Meal
BP43792S,ML,MLTPT,Planned Time Point Name
BP43792S,ML,MLTPTNUM,Planned Time Point Number
BP43792S,ML,MLTPTREF,Time Point Reference
BP43792S,ML,MLTRT,Reported Name of Meal
BP43792S,ML,STUDYID,Study Identifier
BP43792S,ML,USUBJID,Unique Subject Identier
BP43792S,ML,VISIT,Visit Name
BP43792S,ML,VISITDY,Planned Study Day of Visit
BP43792S,ML,VISITNUM,Visit Number
BP43792S,PC,DOMAIN,Domain Abbreviation
BP43792S,PC,EPOCH,Epoch
BP43792S,PC,PCANLDTC,Date/Time of Specimen or Sample Analysis
BP43792S,PC,PCCAT,Test Category
BP43792S,PC,PCDTC,Date/Time of Specimen Collection
BP43792S,PC,PCDY,Actual Study Day of Specimen Collection
BP43792S,PC,PCELTM,Planned Elapsed Time from Time Point Ref
BP43792S,PC,PCLLOQ,Lower Limit of Quantitation
BP43792S,PC,PCMETHOD,Method of Test or Examination
BP43792S,PC,PCNAM,Vendor Name
BP43792S,PC,PCORRES,Result or Finding in Original Units
BP43792S,PC,PCORRESU,Original Units
BP43792S,PC,PCREASND,Reason Test Not Done
BP43792S,PC,PCREFID,Reference ID
BP43792S,PC,PCRFTDTC,Date/Time of Reference Point
BP43792S,PC,PCSEQ,Sequence Number
BP43792S,PC,PCSPCCND,Specimen Condition
BP43792S,PC,PCSPEC,Specimen Material Type
BP43792S,PC,PCSPID,Sponsor-Defined Identifier
BP43792S,PC,PCSTAT,Completion Status
BP43792S,PC,PCSTRESC,Character Result/Finding in Std Format
BP43792S,PC,PCSTRESN,Numeric Result/Finding in Standard Units
BP43792S,PC,PCSTRESU,Standard Units
BP43792S,PC,PCTEST,Pharmacokinetic Test Name
BP43792S,PC,PCTESTCD,Pharmacokinetic Test Short Name
BP43792S,PC,PCTPT,Planned Time Point Name
BP43792S,PC,PCTPTNUM,Planned Time Point Number
BP43792S,PC,PCTPTREF,Time Point Reference
BP43792S,PC,STUDYID,Study Identifier
BP43792S,PC,USUBJID,Unique Subject Identifier
BP43792S,PC,VISIT,Visit Name
BP43792S,PC,VISITDY,Planned Study Day of Visit
BP43792S,PC,VISITNUM,Visit Number
BP43792S,PR,DOMAIN,Domain Abbreviation
BP43792S,PR,EPOCH,Epoch
BP43792S,PR,PRCAT,Category
BP43792S,PR,PRSEQ,Sequence Number
BP43792S,PR,PRSPID,Sponsor-Defined Identifier
BP43792S,PR,PRSTDTC,Start Date/Time of Procedure
BP43792S,PR,PRSTDY,Study Day of Start of Procedure
BP43792S,PR,PRSTRTPT,Start Relative to Reference Time Point
BP43792S,PR,PRSTTPT,Start Reference Time Point
BP43792S,PR,PRTRT,Reported Name of Procedure
BP43792S,PR,STUDYID,Study Identifier
BP43792S,PR,USUBJID,Unique Subject Identifier
BP43792S,RP,DOMAIN,Domain Abbreviation
BP43792S,RP,EPOCH,Epoch
BP43792S,RP,RPBLFL,Baseline Flag
BP43792S,RP,RPCAT,Category for Repro System Findings
BP43792S,RP,RPDRVFL,Derived Flag
BP43792S,RP,RPDTC,Date/Time of Measurements
BP43792S,RP,RPDY,Study Day of Repro System Findings
BP43792S,RP,RPGRPID,Group ID
BP43792S,RP,RPORRES,Result or Finding in Original Units
BP43792S,RP,RPORRESU,Original Units
BP43792S,RP,RPREASND,Reason Not Performed
BP43792S,RP,RPREFID,Reference ID
BP43792S,RP,RPSCAT,Subcategory for Repro System Findings
BP43792S,RP,RPSEQ,Sequence Number
BP43792S,RP,RPSPID,Sponsor-Defined Identifier
BP43792S,RP,RPSTAT,Completion Status
BP43792S,RP,RPSTRESC,Character Result/Finding in Std. Format
BP43792S,RP,RPSTRESN,Numeric Result/Finding in Standard Units
BP43792S,RP,RPSTRESU,Standard Units
BP43792S,RP,RPTEST,Reproductive System Findings Test Name
BP43792S,RP,RPTESTCD,Repro System Findings Test Short Name
BP43792S,RP,STUDYID,Study Identifier
BP43792S,RP,USUBJID,Unique Subject Identifier
BP43792S,RP,VISIT,Visit Name
BP43792S,RP,VISITDY,Planned Study Day of Visit
BP43792S,RP,VISITNUM,Visit Number
BP43792S,RS,DOMAIN,Domain Abbreviation
BP43792S,RS,EPOCH,Epoch
BP43792S,RS,RSCAT,Category for Response Assessment
BP43792S,RS,RSDTC,Date/Time of Response Assessment
BP43792S,RS,RSDY,Study Day of Response Assessment
BP43792S,RS,RSEVAL,Evaluator
BP43792S,RS,RSGRPID,Group ID
BP43792S,RS,RSMETHOD,Method used to Identify the Tumor
BP43792S,RS,RSORRES,Response Assessment Original Result
BP43792S,RS,RSORRESU,Original Units
BP43792S,RS,RSREASND,Reason Response Assessment Not Performed
BP43792S,RS,RSSCAT,Subcategory
BP43792S,RS,RSSEQ,Sequence Number
BP43792S,RS,RSSPID,Sponsor-Defined Identifier
BP43792S,RS,RSSTAT,Completion Status
BP43792S,RS,RSSTRESC,Response Assessment Result in Std Format
BP43792S,RS,RSSTRESN,Numeric Finding in Standard Units
BP43792S,RS,RSSTRESU,Standard Units
BP43792S,RS,RSTEST,Response Assessment Name
BP43792S,RS,RSTESTCD,Response Assessment Short Name
BP43792S,RS,RSTSTDTL,"Measurement, Test or Examination Detail"
BP43792S,RS,STUDYID,Study Identifier
BP43792S,RS,USUBJID,Unique Subject Identifier
BP43792S,RS,VISIT,Visit Name
BP43792S,RS,VISITDY,Planned Study Day of Visit
BP43792S,RS,VISITNUM,Visit Number
BP43792S,SC,DOMAIN,Domain Abbreviation
BP43792S,SC,EPOCH,Epoch
BP43792S,SC,SCCAT,Category for Subject Characteristic
BP43792S,SC,SCDTC,Date/Time of Collection
BP43792S,SC,SCDY,Study Day of Examination
BP43792S,SC,SCEVLINT,Evaluation Interval
BP43792S,SC,SCGRPID,Group ID
BP43792S,SC,SCORRES,Result or Finding in Original Units
BP43792S,SC,SCORRESU,Original Units
BP43792S,SC,SCREASND,Reason Not Performed
BP43792S,SC,SCSCAT,Subcategory for Subject Characteristic
BP43792S,SC,SCSEQ,Sequence Number
BP43792S,SC,SCSPID,Sponsor-Defined Identifier
BP43792S,SC,SCSTAT,Completion Status
BP43792S,SC,SCSTRESC,Character Result/Finding in Std Format
BP43792S,SC,SCSTRESN,Numeric Result/Finding in Standard Units
BP43792S,SC,SCSTRESU,Standard Units
BP43792S,SC,SCTEST,Subject Characteristic
BP43792S,SC,SCTESTCD,Subject Characteristic Short Name
BP43792S,SC,STUDYID,Study Identifier
BP43792S,SC,USUBJID,Unique Subject Identifier
BP43792S,SU,DOMAIN,Domain Abbreviation
BP43792S,SU,EPOCH,Epoch
BP43792S,SU,STUDYID,Study Identifier
BP43792S,SU,SUCAT,Category for Substance Use
BP43792S,SU,SUCLAS,Substance Use Class
BP43792S,SU,SUCLASCD,Substance Use Class Code
BP43792S,SU,SUDECOD,Standardized Substance Name
BP43792S,SU,SUDOSE,Substance Use Consumption
BP43792S,SU,SUDOSFRM,Dose Form
BP43792S,SU,SUDOSFRQ,Use Frequency Per Interval
BP43792S,SU,SUDOSTOT,Total Daily Consumption
BP43792S,SU,SUDOSTXT,Substance Use Consumption Text
BP43792S,SU,SUDOSU,Consumption Units
BP43792S,SU,SUDTC,Date/Time of Collection
BP43792S,SU,SUDUR,Duration of Substance Use
BP43792S,SU,SUDY,Study Day of Visit/Collection/Exam
BP43792S,SU,SUENDTC,End Date/Time of Substance Use
BP43792S,SU,SUENDY,Study Day of End of Substance Use
BP43792S,SU,SUENRF,End Relative to Reference Period
BP43792S,SU,SUENRTPT,End Relative to Reference Time Point
BP43792S,SU,SUENTPT,End Reference Time Point
BP43792S,SU,SUGRPID,Group ID
BP43792S,SU,SUMODIFY,Modified Substance Name
BP43792S,SU,SUOCCUR,SU Occurrence
BP43792S,SU,SUPRESP,SU Pre-Specified
BP43792S,SU,SUREASND,Reason Substance Use Not Collected
BP43792S,SU,SUROUTE,Route of Administration
BP43792S,SU,SUSCAT,Subcategory for Substance Use
BP43792S,SU,SUSEQ,Sequence Number
BP43792S,SU,SUSPID,Sponsor-Defined Identifier
BP43792S,SU,SUSTAT,Completion Status
BP43792S,SU,SUSTDTC,Start Date/Time of Substance Use
BP43792S,SU,SUSTDY,Study Day of Start of Substance Use
BP43792S,SU,SUSTRF,Start Relative to Reference Period
BP43792S,SU,SUSTRTPT,Start Relative to Reference Time Point
BP43792S,SU,SUSTTPT,Start Reference Time Point
BP43792S,SU,SUTRT,Reported Name of Substance
BP43792S,SU,USUBJID,Unique Subject Identifier
BP43792S,SU,VISIT,Visit Name
BP43792S,SU,VISITDY,Planned Study Day of Visit
BP43792S,SU,VISITNUM,Visit Number
BP43792S,SV,DOMAIN,Domain Abbreviation
BP43792S,SV,EPOCH,Epoch
BP43792S,SV,STUDYID,Study Identifier
BP43792S,SV,SVENDTC,End Date/Time of Visit
BP43792S,SV,SVENDY,Study Day of End of Visit
BP43792S,SV,SVSTDTC,Start Date/Time of Visit
BP43792S,SV,SVSTDY,Study Day of Start of Visit
BP43792S,SV,SVUPDES,Description of Unplanned Visit
BP43792S,SV,USUBJID,Unique Subject Identifier
BP43792S,SV,VISIT,Visit Name
BP43792S,SV,VISITDY,Planned Study Day of Visit
BP43792S,SV,VISITNUM,Visit Number
BP43792S,TS,DOMAIN,Domain Abbreviation
BP43792S,TS,STUDYID,Study Identifier
BP43792S,TS,TSGRPID,Group ID
BP43792S,TS,TSPARM,Trial Summary Parameter
BP43792S,TS,TSPARMCD,Trial Summary Parameter Short Name
BP43792S,TS,TSSEQ,Sequence Number
BP43792S,TS,TSVAL,Parameter Value
BP43792S,TS,TSVALCD,Parameter Value Code
BP43792S,TS,TSVALNF,Parameter Null Flavor
BP43792S,TS,TSVCDREF,Name of the Reference Terminology
BP43792S,TS,TSVCDVER,Version of the Reference Terminology
BP43792S,TV,ARM,Description of Planned Arm
BP43792S,TV,ARMCD,Planned Arm Code
BP43792S,TV,DOMAIN,Domain Abbreviation
BP43792S,TV,STUDYID,Study Identifier
BP43792S,TV,TVENRL,Visit End Rule
BP43792S,TV,TVSTRL,Visit Start Rule
BP43792S,TV,VISIT,Visit Name
BP43792S,TV,VISITCD,Visit Code
BP43792S,TV,VISITDY,Planned Study Day of Visit
BP43792S,TV,VISITNUM,Visit Number
BP43792S,VS,DOMAIN,Domain Abbreviation
BP43792S,VS,EPOCH,Epoch
BP43792S,VS,STUDYID,Study Identifier
BP43792S,VS,USUBJID,Unique Subject Identifier
BP43792S,VS,VISIT,Visit Name
BP43792S,VS,VISITDY,Planned Study Day of Visit
BP43792S,VS,VISITNUM,Visit Number
BP43792S,VS,VSBLFL,Baseline Flag
BP43792S,VS,VSCAT,Category for Vital Signs
BP43792S,VS,VSDTC,Date/Time of Measurements
BP43792S,VS,VSDY,Study Day of Vital Signs
BP43792S,VS,VSELTM,Planned Elapsed Time from Time Point Ref
BP43792S,VS,VSLOC,Location of Vital Signs Measurement
BP43792S,VS,VSMETHOD,Method of Test or Examination
BP43792S,VS,VSORRES,Result or Finding in Original Units
BP43792S,VS,VSORRESU,Original Units
BP43792S,VS,VSPOS,Vital Signs Position of Subject
BP43792S,VS,VSREASND,Reason Not Performed
BP43792S,VS,VSRFTDTC,Date/Time of Reference Time Point
BP43792S,VS,VSSCAT,Subcategory for Vital Signs
BP43792S,VS,VSSEQ,Sequence Number
BP43792S,VS,VSSPID,Sponsor-Defined Identifier
BP43792S,VS,VSSTAT,Completion Status
BP43792S,VS,VSSTRESC,Character Result/Finding in Std Format
BP43792S,VS,VSSTRESN,Numeric Result/Finding in Standard Units
BP43792S,VS,VSSTRESU,Standard Units
BP43792S,VS,VSTEST,Vital Signs Test Name
BP43792S,VS,VSTESTCD,Vital Signs Test Short Name
BP43792S,VS,VSTPT,Planned Time Point Name
BP43792S,VS,VSTPTNUM,Planned Time Point Number
BP43792S,VS,VSTPTREF,Time Point Reference
BP43792S,YI,DOMAIN,Domain Abbreviation
BP43792S,YI,EPOCH,Epoch
BP43792S,YI,STUDYID,Study Identifier
BP43792S,YI,USUBJID,Unique Subject Identifier
BP43792S,YI,YICAT,Category
BP43792S,YI,YICNTRY,Center Country
BP43792S,YI,YICRTN,Clinical Research Task Number
BP43792S,YI,YICSTATE,Center State
BP43792S,YI,YICTCITY,Center City
BP43792S,YI,YICTCNAM,Center Name
BP43792S,YI,YICTCNM1,Center Name 1
BP43792S,YI,YICTCNM2,Center Name 2
BP43792S,YI,YICTCNM3,Center Name 3
BP43792S,YI,YICTCNUM,Center Number
BP43792S,YI,YICTINAM,Center Investigator Name
BP43792S,YI,YICTINUM,Center Investigator Number
BP43792S,YI,YICTZIP,Center Postal Zip Code
BP43792S,YI,YIENDTC,End Date/Time of Inv Assignment
BP43792S,YI,YIENDY,Study Day of End of Inv Assignment
BP43792S,YI,YIGRPID,Group ID
BP43792S,YI,YIIADDR1,Investigator Address Line 1
BP43792S,YI,YIIADDR2,Investigator Address Line 2
BP43792S,YI,YIIADDR3,Investigator Address Line 3
BP43792S,YI,YIICITY,Investigator City
BP43792S,YI,YIICNTRY,Investigator Country
BP43792S,YI,YIIEMAIL,Investigator Email ID
BP43792S,YI,YIIFAX,Investigator Fax Number
BP43792S,YI,YIIMNAM,Investigator Middle Name
BP43792S,YI,YIINUM,Investigator Contact Number
BP43792S,YI,YIINUMTP,Investigator Contact Type
BP43792S,YI,YIINVID,Investigator Identifier
BP43792S,YI,YIINVZIP,Investigator Postal Zip Code
BP43792S,YI,YIISTATE,Investigator State
BP43792S,YI,YISCAT,Subcategory
BP43792S,YI,YISEQ,Sequence Number
BP43792S,YI,YISITEID,Site Identifier
BP43792S,YI,YISPID,Sponsor-Defined Identifier
BP43792S,YI,YISTDTC,Start Date/Time of Inv Assignment
BP43792S,YI,YISTDY,Study Day of Start of Inv Assignment
BP43792S,YI,YITERM,Reported Term for Event
BP43949S,AE,AEACN,Action Taken with Study Treatment
BP43949S,AE,AEACNOT1,Other Action Taken 1
BP43949S,AE,AEACNOT2,Other Action Taken 2
BP43949S,AE,AEACNOTH,Other Action Taken
BP43949S,AE,AEASOD,Accidental Overdose?
BP43949S,AE,AEBDSYCD,Body System or Organ Class Code
BP43949S,AE,AEBODSYS,Body System or Organ Class
BP43949S,AE,AECAT,Category for Adverse Event
BP43949S,AE,AECONCST,Corticosteroid Medications Given for AE
BP43949S,AE,AECONTRT,Concomitant or Additional Trtmnt Given
BP43949S,AE,AEDECOD,Dictionary-Derived Term
BP43949S,AE,AEDLEYN,Dose Limiting Adverse Event?
BP43949S,AE,AEDTHDTC,Death Date
BP43949S,AE,AEENDTC,End Date/Time of Adverse Event
BP43949S,AE,AEENDY,Study Day of End of Adverse Event
BP43949S,AE,AEENRTPT,End Relative to Reference Time Point
BP43949S,AE,AEENTPT,End Reference Time Point
BP43949S,AE,AEEXP,Expedited Adverse Event
BP43949S,AE,AEGRPID,Group ID
BP43949S,AE,AEHLGT,High Level Group Term
BP43949S,AE,AEHLGTCD,High Level Group Term Code
BP43949S,AE,AEHLT,High Level Term
BP43949S,AE,AEHLTCD,High Level Term Code
BP43949S,AE,AEITOXGR,Initial Toxicity Grade
BP43949S,AE,AELLT,Lowest Level Term
BP43949S,AE,AELLTCD,Lowest Level Term Code
BP43949S,AE,AEMEDERR,Medication Error?
BP43949S,AE,AEMODIFY,Modified Reported Term
BP43949S,AE,AEOCCRF,Event Occurrence Reference Time Point
BP43949S,AE,AEOUT,Outcome of Adverse Event
BP43949S,AE,AEPATT,Pattern of Adverse Event
BP43949S,AE,AEPTCD,Preferred Term Code
BP43949S,AE,AEREFID,Reference ID
BP43949S,AE,AEREL,Causality
BP43949S,AE,AERELNS1,Relationship to Non-Study Treatment 1
BP43949S,AE,AERELNS2,Relationship to Non-Study Treatment 2
BP43949S,AE,AERELNS3,Relationship to Non-Study Treatment 3
BP43949S,AE,AERELNS4,Relationship to Non-Study Treatment 4
BP43949S,AE,AERELNS5,Relationship to Non-Study Treatment 5
BP43949S,AE,AERELNS6,Relationship to Non-Study Treatment 6
BP43949S,AE,AERELNST,Relationship to Non-Study Treatment
BP43949S,AE,AESCAT,Subcategory for Adverse Event
BP43949S,AE,AESDTH,Results in Death
BP43949S,AE,AESEQ,Sequence Number
BP43949S,AE,AESER,Serious Event
BP43949S,AE,AESOC,Primary System Organ Class
BP43949S,AE,AESOCCD,Primary System Organ Class Code
BP43949S,AE,AESPID,Sponsor-Defined Identifier
BP43949S,AE,AESTDTC,Start Date/Time of Adverse Event
BP43949S,AE,AESTDY,Study Day of Start of Adverse Event
BP43949S,AE,AESTRTPT,Start Relative to Reference Time Point
BP43949S,AE,AESTTPT,Start Reference Time Point
BP43949S,AE,AETERM,Reported Term for the Adverse Event
BP43949S,AE,AETOXGR,Standard Toxicity Grade
BP43949S,AE,AETRTEM,Treatment Emergent Flag
BP43949S,AE,DOMAIN,Domain Abbreviation
BP43949S,AE,EPOCH,Epoch
BP43949S,AE,STUDYID,Study Identifier
BP43949S,AE,USUBJID,Unique Subject Identifier
BP43949S,BE,BECAT,Category for Biospecimen Event
BP43949S,BE,BEDECOD,Dictionary-Derived Term
BP43949S,BE,BEDTC,Date/Time of Specimen Collection
BP43949S,BE,BEDY,Study Day of Visit/Collection/Exam
BP43949S,BE,BEENDTC,End Date/Time of Biospecimen Event
BP43949S,BE,BEENDY,Study Day of End of Biospecimen Event
BP43949S,BE,BEOCCUR,Occurrence
BP43949S,BE,BEPRESP,Pre-specified
BP43949S,BE,BEREFID,Reference ID
BP43949S,BE,BESCAT,Subcategory for Biospecimen Event
BP43949S,BE,BESEQ,Sequence Number
BP43949S,BE,BESPID,Sponsor-Defined Identifier
BP43949S,BE,BESPPURP,Specimen Intended Purpose
BP43949S,BE,BESTDTC,Start Date/Time of Biospecimen Event
BP43949S,BE,BESTDY,Study Day of Start of Biospecimen Event
BP43949S,BE,BETERM,Reported Term for the Biospecimen Event
BP43949S,BE,BETPT,Planned Time Point Name
BP43949S,BE,BETPTNUM,Planned Time Point Number
BP43949S,BE,DOMAIN,Domain Abbreviation
BP43949S,BE,EPOCH,Epoch
BP43949S,BE,STUDYID,Study Identifier
BP43949S,BE,USUBJID,Unique Subject Identifier
BP43949S,BE,VISIT,Visit Name
BP43949S,BE,VISITDY,Planned Study Day of Visit
BP43949S,BE,VISITNUM,Visit Number
BP43949S,BS,BSBLFL,Baseline Flag
BP43949S,BS,BSCAT,Category for Biospecimen Test
BP43949S,BS,BSDTC,Date/Time of Specimen Collection
BP43949S,BS,BSDY,Study Day of Specimen Collection
BP43949S,BS,BSELTM,Planned Elapsed Time from Time Point Ref
BP43949S,BS,BSORRES,Result or Finding in Original Units
BP43949S,BS,BSORRESU,Original Units
BP43949S,BS,BSREFID,Reference ID
BP43949S,BS,BSRFTDTC,Date/Time of Reference Time Point
BP43949S,BS,BSSEQ,Sequence Number
BP43949S,BS,BSSPEC,Specimen Type
BP43949S,BS,BSSPID,Sponsor-Defined Identifier
BP43949S,BS,BSSTRESC,Character Result/Finding in Std Format
BP43949S,BS,BSSTRESN,Numeric Result/Finding in Standard Units
BP43949S,BS,BSSTRESU,Standard Units
BP43949S,BS,BSTEST,Biospecimen Test Name
BP43949S,BS,BSTESTCD,Biospecimen Test Short Name
BP43949S,BS,BSTPT,Planned Time Point Name
BP43949S,BS,BSTPTNUM,Planned Time Point Number
BP43949S,BS,BSTPTREF,Time Point Reference
BP43949S,BS,DOMAIN,Domain Abbreviation
BP43949S,BS,EPOCH,Epoch
BP43949S,BS,STUDYID,Study Identifier
BP43949S,BS,USUBJID,Unique Subject Identifier
BP43949S,BS,VISIT,Visit Name
BP43949S,BS,VISITDY,Planned Study Day of Visit
BP43949S,BS,VISITNUM,Visit Number
BP43949S,CE,CEBDSYCD,Body System or Organ Class Code
BP43949S,CE,CEBODSYS,Body System or Organ Class
BP43949S,CE,CECAT,Category for Clinical Event
BP43949S,CE,CEDECOD,Dictionary-Derived Term
BP43949S,CE,CEDTC,Date/Time of Event Collection
BP43949S,CE,CEDY,Study Day of Event Collection
BP43949S,CE,CEENDTC,End Date/Time of Clinical Event
BP43949S,CE,CEENDY,Study Day of End of Observation
BP43949S,CE,CEEVDTYP,Event Date Type
BP43949S,CE,CEGRPID,Group ID
BP43949S,CE,CEHLGT,High Level Group Term
BP43949S,CE,CEHLGTCD,High Level Group Term Code
BP43949S,CE,CEHLT,High Level Term
BP43949S,CE,CEHLTCD,High Level Term Code
BP43949S,CE,CEITOXGR,Initial Toxicity Grade
BP43949S,CE,CELLT,Lowest Level Term
BP43949S,CE,CELLTCD,Lowest Level Term Code
BP43949S,CE,CEMODIFY,Modified Reported Term
BP43949S,CE,CEOCCUR,Clinical Event Occurrence
BP43949S,CE,CEPRESP,Clinical Event Pre-Specified
BP43949S,CE,CEPTCD,Preferred Term Code
BP43949S,CE,CEREFID,Reference ID
BP43949S,CE,CESEQ,Sequence Number
BP43949S,CE,CESER,Serious Event
BP43949S,CE,CESOC,Primary System Organ Class
BP43949S,CE,CESOCCD,Primary System Organ Class Code
BP43949S,CE,CESPID,Sponsor-Defined Identifier
BP43949S,CE,CESTDTC,Start Date/Time of Clinical Event
BP43949S,CE,CESTDY,Study Day of Start of Observation
BP43949S,CE,CETERM,Reported Term for the Clinical Event
BP43949S,CE,CETOXGR,Toxicity Grade
BP43949S,CE,DOMAIN,Domain Abbreviation
BP43949S,CE,EPOCH,Epoch
BP43949S,CE,STUDYID,Study Identifier
BP43949S,CE,USUBJID,Unique Subject Identifier
BP43949S,CE,VISIT,Visit Name
BP43949S,CE,VISITDY,Planned Study Day of Visit
BP43949S,CE,VISITNUM,Visit Number
BP43949S,CM,CMCAT,Category for Medication
BP43949S,CM,CMDECOD,Standardized Medication Name
BP43949S,CM,CMDECOD1,Standardized Medication Name 1
BP43949S,CM,CMDECOD2,Standardized Medication Name 2
BP43949S,CM,CMDECOD3,Standardized Medication Name 3
BP43949S,CM,CMDECOD4,Standardized Medication Name 4
BP43949S,CM,CMDECOD5,Standardized Medication Name 5
BP43949S,CM,CMDECOD6,Standardized Medication Name 6
BP43949S,CM,CMDECOD7,Standardized Medication Name 7
BP43949S,CM,CMDOSE,Dose per Administration
BP43949S,CM,CMDOSFRM,Dose Form
BP43949S,CM,CMDOSFRQ,Dosing Frequency per Interval
BP43949S,CM,CMDOSTXT,Dose Description
BP43949S,CM,CMDOSU,Dose Units
BP43949S,CM,CMDRG,Synonym Medication Name
BP43949S,CM,CMDRG1,Synonym Medication Name 1
BP43949S,CM,CMDRG2,Synonym Medication Name 2
BP43949S,CM,CMDRG3,Synonym Medication Name 3
BP43949S,CM,CMDRG4,Synonym Medication Name 4
BP43949S,CM,CMDRG5,Synonym Medication Name 5
BP43949S,CM,CMDRG6,Synonym Medication Name 6
BP43949S,CM,CMDRG7,Synonym Medication Name 7
BP43949S,CM,CMDRGCD,Synonym Medication Name Code
BP43949S,CM,CMENDTC,End Date/Time of Medication
BP43949S,CM,CMENDY,Study Day of End of Medication
BP43949S,CM,CMENRTPT,End Relative to Reference Time Point
BP43949S,CM,CMENTPT,End Reference Time Point
BP43949S,CM,CMGRPID,Group ID
BP43949S,CM,CMINDC,Indication
BP43949S,CM,CMMODIF1,Modified Reported Name 1
BP43949S,CM,CMMODIF2,Modified Reported Name 2
BP43949S,CM,CMMODIF3,Modified Reported Name 3
BP43949S,CM,CMMODIF4,Modified Reported Name 4
BP43949S,CM,CMMODIF5,Modified Reported Name 5
BP43949S,CM,CMMODIF6,Modified Reported Name 6
BP43949S,CM,CMMODIF7,Modified Reported Name 7
BP43949S,CM,CMMODIFY,Modified Reported Name
BP43949S,CM,CMPNCD,Standardized Medication Name Code
BP43949S,CM,CMPROPH,Given for prophylaxis
BP43949S,CM,CMREFID,Reference ID
BP43949S,CM,CMROUTE,Route of Administration
BP43949S,CM,CMSEQ,Sequence Number
BP43949S,CM,CMSPID,Sponsor-Defined Identifier
BP43949S,CM,CMSTDTC,Start Date/Time of Medication
BP43949S,CM,CMSTDY,Study Day of Start of Medication
BP43949S,CM,CMSTRTPT,Start Relative to Reference Time Point
BP43949S,CM,CMSTTPT,Start Reference Time Point
BP43949S,CM,CMTIME,Timeframe of Medication
BP43949S,CM,CMTRT,"Reported Name of Drug, Med, or Therapy"
BP43949S,CM,DOMAIN,Domain Abbreviation
BP43949S,CM,EPOCH,Epoch
BP43949S,CM,SPDEVID,Sponsor Device Identifier
BP43949S,CM,STUDYID,Study Identifier
BP43949S,CM,USUBJID,Unique Subject Identifier
BP43949S,CO,CODTC,Date/Time of Comment
BP43949S,CO,CODY,Study Day of Visit/Collection/Exam
BP43949S,CO,COEVAL,Evaluator
BP43949S,CO,COREF,Comment Reference
BP43949S,CO,COSEQ,Sequence Number
BP43949S,CO,COVAL,Comment
BP43949S,CO,DOMAIN,Domain Abbreviation
BP43949S,CO,IDVAR,Identifying Variable
BP43949S,CO,IDVARVAL,Identifying Variable Value
BP43949S,CO,RDOMAIN,Related Domain Abbreviation
BP43949S,CO,STUDYID,Study Identifier
BP43949S,CO,USUBJID,Unique Subject Identifier
BP43949S,DI,DIPARM,Device Identifier Element Name
BP43949S,DI,DIPARMCD,Device Identifier Element Short Name
BP43949S,DI,DISEQ,Sequence Number
BP43949S,DI,DIVAL,Device Identifier Element Value
BP43949S,DI,DOMAIN,Domain Abbreviation
BP43949S,DI,SPDEVID,Sponsor Device Identifier
BP43949S,DI,STUDYID,Study Identifier
BP43949S,DM,ACTARM,Description of Actual Arm
BP43949S,DM,ACTARMCD,Actual Arm Code
BP43949S,DM,AGE,Age
BP43949S,DM,AGEU,Age Units
BP43949S,DM,ARM,Description of Planned Arm
BP43949S,DM,ARMCD,Planned Arm Code
BP43949S,DM,BRTHDTC,Date/Time of Birth
BP43949S,DM,COUNTRY,Country
BP43949S,DM,CRACE1,Race as Collected 1
BP43949S,DM,CRACE10,Race as Collected 10
BP43949S,DM,CRACE2,Race as Collected 2
BP43949S,DM,CRACE3,Race as Collected 3
BP43949S,DM,CRACE4,Race as Collected 4
BP43949S,DM,CRACE5,Race as Collected 5
BP43949S,DM,CRACE6,Race as Collected 6
BP43949S,DM,CRACE7,Race as Collected 7
BP43949S,DM,CRACE8,Race as Collected 8
BP43949S,DM,CRACE9,Race as Collected 9
BP43949S,DM,DMDTC,Date/Time of Collection
BP43949S,DM,DMDY,Study Day of Collection
BP43949S,DM,DOMAIN,Domain Abbreviation
BP43949S,DM,DTHDTC,Date/Time of Death
BP43949S,DM,DTHFL,Subject Death Flag
BP43949S,DM,ETHNIC,Ethnicity
BP43949S,DM,ETHNIC1,Ethnicity 1
BP43949S,DM,ETHNIC2,Ethnicity 2
BP43949S,DM,ETHNIC3,Ethnicity 3
BP43949S,DM,ETHNIC4,Ethnicity 4
BP43949S,DM,ETHNIC5,Ethnicity 5
BP43949S,DM,INVID,Investigator Identifier
BP43949S,DM,INVNAM,Investigator Name
BP43949S,DM,RACE,Race
BP43949S,DM,RACE1,Race 1
BP43949S,DM,RACE2,Race 2
BP43949S,DM,RACE3,Race 3
BP43949S,DM,RACE4,Race 4
BP43949S,DM,RACE5,Race 5
BP43949S,DM,RACE6,Race 6
BP43949S,DM,RFENDTC,Subject Reference End Date/Time
BP43949S,DM,RFICDTC,Date/Time of Informed Consent
BP43949S,DM,RFPENDTC,Date/Time of End of Participation
BP43949S,DM,RFSTDTC,Subject Reference Start Date/Time
BP43949S,DM,RFXENDTC,Date/Time of Last Study Treatment
BP43949S,DM,RFXSTDTC,Date/Time of First Study Treatment
BP43949S,DM,SEX,Sex
BP43949S,DM,SITEID,Study Site Identifier
BP43949S,DM,STUDYID,Study Identifier
BP43949S,DM,SUBJID,Subject Identifier for the Study
BP43949S,DM,USUBJID,Unique Subject Identifier
BP43949S,DS,DOMAIN,Domain Abbreviation
BP43949S,DS,DSCAT,Category for Disposition Event
BP43949S,DS,DSDECOD,Standardized Disposition Term
BP43949S,DS,DSDTC,Date/Time of Collection
BP43949S,DS,DSDY,Study Day of Visit/Collection/Exam
BP43949S,DS,DSPERIOD,Period Subject Continuing Into
BP43949S,DS,DSREFID,Reference ID
BP43949S,DS,DSSCAT,Subcategory for Disposition Event
BP43949S,DS,DSSEQ,Sequence Number
BP43949S,DS,DSSPID,Sponsor-Defined Identifier
BP43949S,DS,DSSTDTC,Start Date/Time of Disposition Event
BP43949S,DS,DSSTDY,Study Day of Start of Disposition Event
BP43949S,DS,DSTERM,Reported Term for the Disposition Event
BP43949S,DS,EPOCH,Epoch
BP43949S,DS,STUDYID,Study Identifier
BP43949S,DS,USUBJID,Unique Subject Identifier
BP43949S,DV,DOMAIN,Domain Abbreviation
BP43949S,DV,DVCAT,Category for Protocol Deviation
BP43949S,DV,DVDECOD,Protocol Deviation Coded Term
BP43949S,DV,DVEDREAS,Emergency Disruption Related Reason
BP43949S,DV,DVEDRELI,Emergency Disruption Related Indicator
BP43949S,DV,DVEDRETP,Emergency Disruption Related Type
BP43949S,DV,DVEPRELI,Epi/Pandemic Related Indicator
BP43949S,DV,DVREAS,Reason for Deviation
BP43949S,DV,DVREFID,Reference ID
BP43949S,DV,DVSEQ,Sequence Number
BP43949S,DV,DVSPID,Sponsor-Defined Identifier
BP43949S,DV,DVSTDTC,Start Date/Time of Deviation
BP43949S,DV,DVSTDY,Study Day of Start of Deviation
BP43949S,DV,DVTERM,Protocol Deviation Term
BP43949S,DV,EPOCH,Epoch
BP43949S,DV,STUDYID,Study Identifier
BP43949S,DV,USUBJID,Unique Subject Identifier
BP43949S,EC,DOMAIN,Domain Abbreviation
BP43949S,EC,ECBATCH,Batch Number
BP43949S,EC,ECDOSDEL,Reason for Study Drug Dose Delay
BP43949S,EC,ECDOSE,Dose
BP43949S,EC,ECDOSFRM,Dose Form
BP43949S,EC,ECDOSFRQ,Dosing Frequency per Interval
BP43949S,EC,ECDOSU,Dose Units
BP43949S,EC,ECENDTC,End Date/Time of Treatment
BP43949S,EC,ECENDY,Study Day of End of Treatment
BP43949S,EC,ECLAT,Laterality
BP43949S,EC,ECLNKGRP,Link Group ID
BP43949S,EC,ECLNKID,Link ID
BP43949S,EC,ECLOC,Location of Dose Administration
BP43949S,EC,ECLOT,Lot Number
BP43949S,EC,ECMOOD,Mood
BP43949S,EC,ECOCCUR,Occurrence
BP43949S,EC,ECPRESP,Pre-Specified
BP43949S,EC,ECPSTRG,Pharmaceutical Strength
BP43949S,EC,ECPSTRGU,Pharmaceutical Strength Units
BP43949S,EC,ECREASOC,Reason for Study Drug Not Administered
BP43949S,EC,ECROUTE,Route of Administration
BP43949S,EC,ECSEQ,Sequence Number
BP43949S,EC,ECSPID,Sponsor-Defined Identifier
BP43949S,EC,ECSTDTC,Start Date/Time of Treatment
BP43949S,EC,ECSTDY,Study Day of Start of Treatment
BP43949S,EC,ECTRT,Name of Treatment
BP43949S,EC,EPOCH,Epoch
BP43949S,EC,STUDYID,Study Identifier
BP43949S,EC,USUBJID,Unique Subject Identifier
BP43949S,EC,VISIT,Visit Name
BP43949S,EC,VISITDY,Planned Study Day of Visit
BP43949S,EC,VISITNUM,Visit Number
BP43949S,EX,DOMAIN,Domain Abbreviation
BP43949S,EX,EPOCH,Epoch
BP43949S,EX,EXDOSE,Dose
BP43949S,EX,EXDOSFRM,Dose Form
BP43949S,EX,EXDOSFRQ,Dosing Frequency per Interval
BP43949S,EX,EXDOSU,Dose Units
BP43949S,EX,EXENDTC,End Date/Time of Treatment
BP43949S,EX,EXENDY,Study Day of End of Treatment
BP43949S,EX,EXLAT,Laterality
BP43949S,EX,EXLNKGRP,Link Group ID
BP43949S,EX,EXLNKID,Link ID
BP43949S,EX,EXLOC,Location of Dose Administration
BP43949S,EX,EXLOT,Lot Number
BP43949S,EX,EXROUTE,Route of Administration
BP43949S,EX,EXSEQ,Sequence Number
BP43949S,EX,EXSPID,Sponsor-Defined Identifier
BP43949S,EX,EXSTDTC,Start Date/Time of Treatment
BP43949S,EX,EXSTDY,Study Day of Start of Treatment
BP43949S,EX,EXTRT,Name of Treatment
BP43949S,EX,STUDYID,Study Identifier
BP43949S,EX,USUBJID,Unique Subject Identifier
BP43949S,EX,VISIT,Visit Name
BP43949S,EX,VISITDY,Planned Study Day of Visit
BP43949S,EX,VISITNUM,Visit Number
BP43949S,FA,DOMAIN,Domain Abbreviation
BP43949S,FA,EPOCH,Epoch
BP43949S,FA,FABLFL,Baseline Flag
BP43949S,FA,FACAT,Category for Findings About
BP43949S,FA,FADTC,Date/Time of Collection
BP43949S,FA,FADY,Study Day of Collection
BP43949S,FA,FAECADJ,Reason for Dose Modification
BP43949S,FA,FAENDTC,End Date/Time of Observation
BP43949S,FA,FAENDY,Study Day of End of Observation
BP43949S,FA,FAGRPID,Group ID
BP43949S,FA,FALNKID,Link ID
BP43949S,FA,FAOBJ,Object of the Observation
BP43949S,FA,FAORRES,Result or Finding in Original Units
BP43949S,FA,FAORRESU,Original Units
BP43949S,FA,FAREFID,Reference ID
BP43949S,FA,FASEQ,Sequence Number
BP43949S,FA,FASPID,Sponsor-Defined Identifier
BP43949S,FA,FASTDTC,Start Date/Time of Observation
BP43949S,FA,FASTDY,Study Day of Start of Observation
BP43949S,FA,FASTRESC,Character Result/Finding in Std Format
BP43949S,FA,FASTRESN,Numeric Result/Finding in Standard Units
BP43949S,FA,FASTRESU,Standard Units
BP43949S,FA,FATEST,Findings About Test Name
BP43949S,FA,FATESTCD,Findings About Test Short Name
BP43949S,FA,FATPT,Planned Time Point Name
BP43949S,FA,FATPTNUM,Planned Time Point Number
BP43949S,FA,STUDYID,Study Identifier
BP43949S,FA,USUBJID,Unique Subject Identifier
BP43949S,FA,VISIT,Visit Name
BP43949S,FA,VISITDY,Planned Study Day of Visit
BP43949S,FA,VISITNUM,Visit Number
BP43949S,HO,DOMAIN,Domain Abbreviation
BP43949S,HO,EPOCH,Epoch
BP43949S,HO,HOCAT,Category for Healthcare Encounter
BP43949S,HO,HODY,Study Day of Event Collection
BP43949S,HO,HOENDTC,End Date/Time of Healthcare Encounter
BP43949S,HO,HOENDY,Study Day of End of Healthcare Encounter
BP43949S,HO,HOGRPID,Group ID
BP43949S,HO,HOINDC,Indication
BP43949S,HO,HOOCCUR,Healthcare Encounter Occurrence
BP43949S,HO,HOPRESP,Pre-Specified Healthcare Encounter
BP43949S,HO,HOREASND,Reason Healthcare Encounter Not Done
BP43949S,HO,HOREFID,Reference ID
BP43949S,HO,HOSEQ,Sequence Number
BP43949S,HO,HOSPID,Sponsor-Defined Identifier
BP43949S,HO,HOSTDTC,Start Date/Time of Healthcare Encounter
BP43949S,HO,HOSTDY,Study Day of Start of Encounter
BP43949S,HO,HOTERM,Healthcare Encounter Term
BP43949S,HO,STUDYID,Study Identifier
BP43949S,HO,USUBJID,Unique Subject Identifier
BP43949S,LB,DOMAIN,Domain Abbreviation
BP43949S,LB,EPOCH,Epoch
BP43949S,LB,LBBLFL,Baseline Flag
BP43949S,LB,LBCAT,Category for Lab Test
BP43949S,LB,LBCVNRHI,Reference Range Upper Limit-US CV Units
BP43949S,LB,LBCVNRLO,Reference Range Lower Limit-US CV Units
BP43949S,LB,LBCVRESC,Character Result/Finding in US CV Format
BP43949S,LB,LBCVRESN,Numeric Result/Finding in US CV Format
BP43949S,LB,LBCVRESU,US Conventional Units
BP43949S,LB,LBDTC,Date/Time of Specimen Collection
BP43949S,LB,LBDY,Study Day of Specimen Collection
BP43949S,LB,LBELTM,Planned Elapsed Time from Time Point Ref
BP43949S,LB,LBFAST,Fasting Status
BP43949S,LB,LBLLOQ,Lower Limit of Quantification
BP43949S,LB,LBMETHOD,Method of Test or Examination
BP43949S,LB,LBNAM,Vendor Name
BP43949S,LB,LBNRIND,Reference Range Indicator
BP43949S,LB,LBORLLOQ,Original Lower Limit of Quantitation
BP43949S,LB,LBORNRHI,Reference Range Upper Limit in Orig Unit
BP43949S,LB,LBORNRLO,Reference Range Lower Limit in Orig Unit
BP43949S,LB,LBORRES,Result or Finding in Original Units
BP43949S,LB,LBORRESU,Original Units
BP43949S,LB,LBREASND,Reason Test Not Done
BP43949S,LB,LBREFID,Specimen ID
BP43949S,LB,LBRFTDTC,Date/Time of Reference Time Point
BP43949S,LB,LBSEQ,Sequence Number
BP43949S,LB,LBSMPLID,Alternate Sample Identifier
BP43949S,LB,LBSPCCND,Specimen Condition
BP43949S,LB,LBSPEC,Specimen Type
BP43949S,LB,LBSPID,Sponsor-Defined Identifier
BP43949S,LB,LBSTAT,Completion Status
BP43949S,LB,LBSTNRHI,Reference Range Upper Limit-Std Units
BP43949S,LB,LBSTNRLO,Reference Range Lower Limit-Std Units
BP43949S,LB,LBSTRESC,Character Result/Finding in Std Format
BP43949S,LB,LBSTRESN,Numeric Result/Finding in Standard Units
BP43949S,LB,LBSTRESU,Standard Units
BP43949S,LB,LBTEST,Lab Test or Examination Name
BP43949S,LB,LBTESTCD,Lab Test or Examination Short Name
BP43949S,LB,LBTPT,Planned Time Point Name
BP43949S,LB,LBTPTNUM,Planned Time Point Number
BP43949S,LB,LBTPTREF,Time Point Reference
BP43949S,LB,LBTSTDTL,"Measurement, Test or Examination Detail"
BP43949S,LB,STUDYID,Study Identifier
BP43949S,LB,USUBJID,Unique Subject Identifier
BP43949S,LB,VISIT,Visit Name
BP43949S,LB,VISITDY,Planned Study Day of Visit
BP43949S,LB,VISITNUM,Visit Number
BP43949S,MH,DOMAIN,Domain Abbreviation
BP43949S,MH,EPOCH,Epoch
BP43949S,MH,MHBDSYCD,Body System or Organ Class Code
BP43949S,MH,MHBODSYS,Body System or Organ Class
BP43949S,MH,MHCAT,Category for Medical History
BP43949S,MH,MHDECOD,Dictionary-Derived Term
BP43949S,MH,MHDTC,Date/Time of History Collection
BP43949S,MH,MHDY,Study Day of History Collection
BP43949S,MH,MHENDTC,End Date/Time of Medical History Event
BP43949S,MH,MHENDY,Study Day of End of Observation
BP43949S,MH,MHENRTPT,End Relative to Reference Time Point
BP43949S,MH,MHENTPT,End Reference Time Point
BP43949S,MH,MHGRPID,Group ID
BP43949S,MH,MHHLGT,High Level Group Term
BP43949S,MH,MHHLGTCD,High Level Group Term Code
BP43949S,MH,MHHLT,High Level Term
BP43949S,MH,MHHLTCD,High Level Term Code
BP43949S,MH,MHLLT,Lowest Level Term
BP43949S,MH,MHLLTCD,Lowest Level Term Code
BP43949S,MH,MHMODIFY,Modified Reported Term
BP43949S,MH,MHOCCUR,Medical History Occurrence
BP43949S,MH,MHPRESP,Medical History Event Pre-Specified
BP43949S,MH,MHPTCD,Preferred Term Code
BP43949S,MH,MHREASND,Reason Medical History Not Collected
BP43949S,MH,MHSEQ,Sequence Number
BP43949S,MH,MHSOC,Primary System Organ Class
BP43949S,MH,MHSOCCD,Primary System Organ Class Code
BP43949S,MH,MHSPID,Sponsor-Defined Identifier
BP43949S,MH,MHSTDTC,Start Date/Time of Medical History Event
BP43949S,MH,MHSTDY,Study Day of Start of Observation
BP43949S,MH,MHSTRTPT,Start Relative to Reference Time Point
BP43949S,MH,MHSTTPT,Start Reference Time Point
BP43949S,MH,MHTERM,Reported Term for the Medical History
BP43949S,MH,STUDYID,Study Identifier
BP43949S,MH,USUBJID,Unique Subject Identifier
BP43949S,MH,VISIT,Visit Name
BP43949S,MH,VISITDY,Planned Study Day of Visit
BP43949S,MH,VISITNUM,Visit Number
BP43949S,PC,DOMAIN,Domain Abbreviation
BP43949S,PC,EPOCH,Epoch
BP43949S,PC,PCANLDTC,Date/Time of Specimen or Sample Analysis
BP43949S,PC,PCCAT,Test Category
BP43949S,PC,PCDTC,Date/Time of Specimen Collection
BP43949S,PC,PCDY,Actual Study Day of Specimen Collection
BP43949S,PC,PCELTM,Planned Elapsed Time from Time Point Ref
BP43949S,PC,PCENDTC,End Date/Time of Specimen Collection
BP43949S,PC,PCENDY,Study Day of End of Observation
BP43949S,PC,PCLLOQ,Lower Limit of Quantitation
BP43949S,PC,PCMETHOD,Method of Test or Examination
BP43949S,PC,PCNAM,Vendor Name
BP43949S,PC,PCORRES,Result or Finding in Original Units
BP43949S,PC,PCORRESU,Original Units
BP43949S,PC,PCREASND,Reason Test Not Done
BP43949S,PC,PCREFID,Reference ID
BP43949S,PC,PCRFTDTC,Date/Time of Reference Point
BP43949S,PC,PCSEQ,Sequence Number
BP43949S,PC,PCSMPLID,Alternate Sample Identifier
BP43949S,PC,PCSPCCND,Specimen Condition
BP43949S,PC,PCSPEC,Specimen Material Type
BP43949S,PC,PCSPID,Sponsor-Defined Identifier
BP43949S,PC,PCSTAT,Completion Status
BP43949S,PC,PCSTRESC,Character Result/Finding in Std Format
BP43949S,PC,PCSTRESN,Numeric Result/Finding in Standard Units
BP43949S,PC,PCSTRESU,Standard Units
BP43949S,PC,PCTEST,Pharmacokinetic Test Name
BP43949S,PC,PCTESTCD,Pharmacokinetic Test Short Name
BP43949S,PC,PCTPT,Planned Time Point Name
BP43949S,PC,PCTPTNUM,Planned Time Point Number
BP43949S,PC,PCTPTREF,Time Point Reference
BP43949S,PC,STUDYID,Study Identifier
BP43949S,PC,USUBJID,Unique Subject Identifier
BP43949S,PC,VISIT,Visit Name
BP43949S,PC,VISITDY,Planned Study Day of Visit
BP43949S,PC,VISITNUM,Visit Number
BP43949S,PR,DOMAIN,Domain Abbreviation
BP43949S,PR,EPOCH,Epoch
BP43949S,PR,PRACCSNM,Prior Vendor/Parental Unique Sample ID
BP43949S,PR,PRBDSYCD,Body System or Organ Class Code
BP43949S,PR,PRBODSYS,Body System or Organ Class
BP43949S,PR,PRCAT,Category
BP43949S,PR,PRDECOD,Standardized Procedure Name
BP43949S,PR,PRDIR,Directionality
BP43949S,PR,PRDOSE,Dose
BP43949S,PR,PRDOSFRM,Dose Form
BP43949S,PR,PRDOSFRQ,Dosing Frequency per Interval
BP43949S,PR,PRDOSRGM,Intended Dose Regimen
BP43949S,PR,PRDOSTXT,Dose Description
BP43949S,PR,PRDOSU,Dose Units
BP43949S,PR,PRDUR,Duration of Procedure
BP43949S,PR,PRELTM,Planned Elapsed Time from Time Point Ref
BP43949S,PR,PRENDTC,End Date/Time of Procedure
BP43949S,PR,PRENDY,Study Day of End of Procedure
BP43949S,PR,PRENRTPT,End Relative to Reference Time Point
BP43949S,PR,PRENTPT,End Reference Time Point
BP43949S,PR,PREVINTX,Evaluation Interval Text
BP43949S,PR,PRGRPID,Group ID
BP43949S,PR,PRHLGT,High Level Group Term
BP43949S,PR,PRHLGTCD,High Level Group Term Code
BP43949S,PR,PRHLT,High Level Term
BP43949S,PR,PRHLTCD,High Level Term Code
BP43949S,PR,PRINDC,Indication
BP43949S,PR,PRLAT,Laterality
BP43949S,PR,PRLLT,Lowest Level Term
BP43949S,PR,PRLLTCD,Lowest Level Term Code
BP43949S,PR,PRLNKGRP,Link Group ID
BP43949S,PR,PRLNKID,Link ID
BP43949S,PR,PRLOC,Location of Procedure
BP43949S,PR,PRMODIFY,Modified Procedure Name
BP43949S,PR,PRNAM,Vendor Name
BP43949S,PR,PROCCUR,Occurrence
BP43949S,PR,PRPORTOT,Portion or Totality
BP43949S,PR,PRPRESP,Pre-specified
BP43949S,PR,PRPTCD,Preferred Term Code
BP43949S,PR,PRREASND,Reason Not Done
BP43949S,PR,PRREFID,Reference ID
BP43949S,PR,PRRFTDTC,Date/Time of Reference Time Point
BP43949S,PR,PRROUTE,Route of Administration
BP43949S,PR,PRSCAT,Subcategory
BP43949S,PR,PRSEQ,Sequence Number
BP43949S,PR,PRSMPLID,Alternate Sample Identifier
BP43949S,PR,PRSOC,Primary System Organ Class
BP43949S,PR,PRSOCCD,Primary System Organ Class Code
BP43949S,PR,PRSPBID,Site Surgical Pathology/Block Identifier
BP43949S,PR,PRSPID,Sponsor-Defined Identifier
BP43949S,PR,PRSTAT,Completion Status
BP43949S,PR,PRSTDTC,Start Date/Time of Procedure
BP43949S,PR,PRSTDY,Study Day of Start of Procedure
BP43949S,PR,PRSTRTPT,Start Relative to Reference Time Point
BP43949S,PR,PRSTTPT,Start Reference Time Point
BP43949S,PR,PRSUBLCD,"Location of biopsy details, specify"
BP43949S,PR,PRSUBLOC,Anatomical location of biopsy
BP43949S,PR,PRTPT,Planned Time Point Name
BP43949S,PR,PRTPTNUM,Planned Time Point Number
BP43949S,PR,PRTPTREF,Time Point Reference
BP43949S,PR,PRTRT,Reported Name of Procedure
BP43949S,PR,SPDEVID,Sponsor Device Identifier
BP43949S,PR,STUDYID,Study Identifier
BP43949S,PR,USUBJID,Unique Subject Identifier
BP43949S,PR,VISIT,Visit Name
BP43949S,PR,VISITDY,Planned Study Day of Visit
BP43949S,PR,VISITNUM,Visit Number
BP43949S,RP,DOMAIN,Domain Abbreviation
BP43949S,RP,EPOCH,Epoch
BP43949S,RP,RPBLFL,Baseline Flag
BP43949S,RP,RPCAT,Category for Repro System Findings
BP43949S,RP,RPDTC,Date/Time of Measurements
BP43949S,RP,RPDY,Study Day of Repro System Findings
BP43949S,RP,RPORRES,Result or Finding in Original Units
BP43949S,RP,RPORRESU,Original Units
BP43949S,RP,RPSEQ,Sequence Number
BP43949S,RP,RPSPID,Sponsor-Defined Identifier
BP43949S,RP,RPSTRESC,Character Result/Finding in Std. Format
BP43949S,RP,RPTEST,Reproductive System Findings Test Name
BP43949S,RP,RPTESTCD,Repro System Findings Test Short Name
BP43949S,RP,STUDYID,Study Identifier
BP43949S,RP,USUBJID,Unique Subject Identifier
BP43949S,RP,VISIT,Visit Name
BP43949S,RP,VISITDY,Planned Study Day of Visit
BP43949S,RP,VISITNUM,Visit Number
BP43949S,RS,DOMAIN,Domain Abbreviation
BP43949S,RS,EPOCH,Epoch
BP43949S,RS,RSCAT,Category for Response Assessment
BP43949S,RS,RSDTC,Date/Time of Response Assessment
BP43949S,RS,RSDY,Study Day of Response Assessment
BP43949S,RS,RSEVAL,Evaluator
BP43949S,RS,RSGRPID,Group ID
BP43949S,RS,RSORRES,Response Assessment Original Result
BP43949S,RS,RSREASND,Reason Response Assessment Not Performed
BP43949S,RS,RSREFID,Reference ID
BP43949S,RS,RSSCAT,Subcategory
